exp_ID,npar,subj,nblock,ntrial,nrep,cond-1,trial_type,rDV,deci-3,deci-2,deci-1,cond,deci,DV,resp,corr-1,r_map,correct,confi,RT,d1,d2,d3,d4,d5,d6,o1,o2,o3,o4,o5,o6,metad,metad_3%,metad_97%,switch,conf_lvl,confi-1,correct-1
CJ_EEG,1,s01,0,0,0,0,repeat,-0.2039737545449053,0,0,0,0,0,-0.18,-1.0,0,0,1,-0.1,1.2249115000004167,0.132145895698532,0.8207325489712827,-0.1540502927379705,-0.9867489549947668,-0.091425614616975,-0.944496109589534,2.697,0.715,1.903,1.576,1.214,1.549,0.086,-0.345,0.51,0,L,,0
CJ_EEG,1,s01,0,0,1,0,repeat,-0.2039737545449053,0,0,0,0,0,-0.18,-1.0,1,45,1,0.6,1.4986705999999683,0.132145895698532,0.8207325489712827,-0.1540502927379705,-0.9867489549947668,-0.091425614616975,-0.944496109589534,2.697,0.715,1.903,1.576,1.214,1.549,0.086,-0.345,0.51,0,H,-0.1,1
CJ_EEG,1,s01,0,0,2,0,repeat,-0.2039737545449053,0,0,0,0,0,-0.18,-1.0,1,0,1,0.85,5.184099600000081,0.132145895698532,0.8207325489712827,-0.1540502927379705,-0.9867489549947668,-0.091425614616975,-0.944496109589534,2.697,0.715,1.903,1.576,1.214,1.549,0.086,-0.345,0.51,0,H,0.6,1
CJ_EEG,1,s01,0,1,0,0,nonrepeat,-0.0815698750643692,0,0,0,0,1,-0.08,1.0,1,45,0,0.5,1.053535400000328,-0.7346475251372047,0.1397853329669433,-0.1362249391116785,-0.2228052281536696,-0.2467608390746647,0.7112339481240588,1.675,2.694,1.91,1.876,1.275,0.672,0.086,-0.345,0.51,1,H,,1
CJ_EEG,1,s01,0,1,1,0,nonrepeat,-0.0815698750643692,0,0,1,0,1,-0.08,1.0,0,45,0,0.8,1.0001758999997037,-0.7346475251372047,0.1397853329669433,-0.1362249391116785,-0.2228052281536696,-0.2467608390746647,0.7112339481240588,1.675,2.694,1.91,1.876,1.275,0.672,0.086,-0.345,0.51,0,H,0.5,0
CJ_EEG,1,s01,0,1,2,0,nonrepeat,-0.0815698750643692,0,1,1,0,1,-0.08,1.0,0,45,0,0.8,1.1486133999997037,-0.7346475251372053,0.1397853329669433,-0.136224939111678,-0.2228052281536696,-0.2467608390746647,0.711233948124059,0.1042036732051032,1.1232036732051034,0.3392036732051036,0.3052036732051033,2.8457963267948965,2.2427963267948967,0.086,-0.345,0.51,0,H,0.8,0
CJ_EEG,1,s01,0,2,0,0,nonrepeat,0.1697613752396936,1,1,1,1,1,0.18,1.0,0,0,1,1.0,1.1984237999995455,-0.3364062567640071,0.5839099936505425,-0.7881235860160819,0.5895216013873641,0.0888557511775367,0.8808107480028078,2.881,0.622,1.654,2.195,2.714,2.403,0.086,-0.345,0.51,0,H,,0
CJ_EEG,1,s01,0,2,1,1,nonrepeat,0.1697613752396936,1,1,1,1,1,0.18,1.0,1,0,1,0.6,0.881385799999407,-0.3364062567640071,0.5839099936505425,-0.7881235860160819,0.5895216013873641,0.0888557511775367,0.8808107480028078,2.881,0.622,1.654,2.195,2.714,2.403,0.086,-0.345,0.51,0,H,1.0,1
CJ_EEG,1,s01,0,2,2,1,nonrepeat,0.1697613752396932,1,1,1,1,1,0.18,1.0,1,0,1,0.9,1.3774655000006533,-0.3364062567640082,0.5839099936505421,-0.7881235860160819,0.5895216013873641,0.0888557511775356,0.8808107480028078,1.3102036732051037,2.1927963267948964,0.0832036732051033,0.6242036732051033,1.143203673205104,0.8322036732051035,0.086,-0.345,0.51,0,H,0.6,1
CJ_EEG,1,s01,0,3,0,1,repeat,0.1702722300142521,1,1,1,1,1,0.18,1.0,1,45,1,0.5,0.8621746999997413,0.4076842869192086,-0.2472794886325465,-0.2167217395589026,-0.5844052588584556,0.744338176287173,0.918017403929036,1.018,2.846,2.834,1.734,0.685,2.324,0.086,-0.345,0.51,0,H,,1
CJ_EEG,1,s01,0,3,1,1,repeat,0.1702722300142521,1,1,1,1,1,0.18,1.0,1,45,1,0.75,1.1931051999999909,0.4076842869192086,-0.2472794886325465,-0.2167217395589026,-0.5844052588584556,0.744338176287173,0.918017403929036,1.018,2.846,2.834,1.734,0.685,2.324,0.086,-0.345,0.51,0,H,0.5,1
CJ_EEG,1,s01,0,3,2,1,repeat,0.1702722300142521,1,1,1,1,1,0.18,1.0,1,0,1,0.9,3.388478599999871,0.4076842869192086,-0.2472794886325465,-0.2167217395589026,-0.5844052588584556,0.744338176287173,0.918017403929036,1.018,2.846,2.834,1.734,0.685,2.324,0.086,-0.345,0.51,0,H,0.75,1
CJ_EEG,1,s01,0,4,0,1,nonrepeat,0.0976975759643479,1,1,1,1,1,0.08,1.0,1,45,1,0.6,0.9582829000000856,0.7092061185924696,-0.1601805500326741,-0.671504197458328,0.260507149287811,0.7107152985661773,-0.2625583631693679,2.242,1.241,0.129,0.495,0.899,2.852,0.086,-0.345,0.51,0,H,,1
CJ_EEG,1,s01,0,4,1,1,nonrepeat,0.0976975759643479,1,1,1,1,1,0.08,1.0,1,45,1,0.9,1.0965498999994452,0.7092061185924696,-0.1601805500326741,-0.671504197458328,0.260507149287811,0.7107152985661773,-0.2625583631693679,2.242,1.241,0.129,0.495,0.899,2.852,0.086,-0.345,0.51,0,H,0.6,1
CJ_EEG,1,s01,0,4,2,1,nonrepeat,0.0976975759643478,1,1,1,1,1,0.08,1.0,1,0,1,0.95,1.4285338999998205,0.7092061185924696,-0.1601805500326741,-0.671504197458328,0.2605071492878115,0.7107152985661773,-0.262558363169369,0.6712036732051034,2.8117963267948967,1.6997963267948966,2.0657963267948967,2.4697963267948966,1.2812036732051038,0.086,-0.345,0.51,0,H,0.9,1
CJ_EEG,1,s01,0,5,0,1,repeat,-0.0631550198538607,1,1,1,0,1,-0.08,1.0,1,0,0,0.8,1.3092879000005269,-0.1123160968906194,-0.4728788284796427,0.5273688041243141,0.2941300270088072,-0.7377126537845564,0.1224786288985324,2.793,0.207,0.971,2.079,0.103,1.13,0.086,-0.345,0.51,0,H,,1
CJ_EEG,1,s01,0,5,1,0,repeat,-0.0631550198538607,1,1,1,0,1,-0.08,1.0,0,0,0,0.95,1.23176070000045,-0.1123160968906194,-0.4728788284796427,0.5273688041243141,0.2941300270088072,-0.7377126537845564,0.1224786288985324,2.793,0.207,0.971,2.079,0.103,1.13,0.086,-0.345,0.51,0,H,0.8,0
CJ_EEG,1,s01,0,5,2,0,repeat,-0.0631550198538607,1,1,1,0,1,-0.08,1.0,0,45,0,1.0,1.4330354000003354,-0.1123160968906194,-0.4728788284796427,0.5273688041243141,0.2941300270088072,-0.7377126537845564,0.1224786288985324,2.793,0.207,0.971,2.079,0.103,1.13,0.086,-0.345,0.51,0,H,0.95,0
CJ_EEG,1,s01,0,6,0,0,nonrepeat,-0.1793577900133589,1,1,1,0,0,-0.18,-1.0,0,0,1,0.4,0.8413832999995066,0.1204507993669432,-0.2895323340377791,-0.2269076559167838,0.6353582249978305,-0.5258362398006384,-0.7896795346897261,0.44,0.279,2.838,2.213,1.757,3.059,0.086,-0.345,0.51,1,H,,0
CJ_EEG,1,s01,0,6,1,0,nonrepeat,-0.1793577900133589,1,1,0,0,0,-0.18,-1.0,1,0,1,0.7,0.7649648999995406,0.1204507993669432,-0.2895323340377791,-0.2269076559167838,0.6353582249978305,-0.5258362398006384,-0.7896795346897261,0.44,0.279,2.838,2.213,1.757,3.059,0.086,-0.345,0.51,0,H,0.4,1
CJ_EEG,1,s01,0,6,2,0,nonrepeat,-0.1793577900133591,1,0,0,0,0,-0.18,-1.0,1,0,1,0.75,1.6043749999998909,0.120450799366943,-0.2895323340377794,-0.2269076559167838,0.6353582249978305,-0.525836239800639,-0.7896795346897261,2.0107963267948965,1.8497963267948965,1.2672036732051035,0.6422036732051035,0.1862036732051031,1.4882036732051036,0.086,-0.345,0.51,0,H,0.7,1
CJ_EEG,1,s01,0,7,0,0,repeat,0.1764655445519676,0,0,0,1,1,0.18,1.0,1,0,1,0.6,0.8982568999999785,0.0292962017038931,0.9266473716132744,-0.1449016754958522,0.3832567951402676,-0.1479668041432034,0.0124613784934263,1.975,2.385,1.235,2.114,2.807,2.744,0.086,-0.345,0.51,1,H,,1
CJ_EEG,1,s01,0,7,1,1,repeat,0.1764655445519676,0,0,1,1,1,0.18,1.0,1,45,1,0.8,1.3072933000003104,0.0292962017038931,0.9266473716132744,-0.1449016754958522,0.3832567951402676,-0.1479668041432034,0.0124613784934263,1.975,2.385,1.235,2.114,2.807,2.744,0.086,-0.345,0.51,0,H,0.6,1
CJ_EEG,1,s01,0,7,2,1,repeat,0.1764655445519676,0,1,1,1,1,0.18,1.0,1,45,1,0.95,1.1322372999993604,0.0292962017038931,0.9266473716132744,-0.1449016754958522,0.3832567951402676,-0.1479668041432034,0.0124613784934263,1.975,2.385,1.235,2.114,2.807,2.744,0.086,-0.345,0.51,0,H,0.8,1
CJ_EEG,1,s01,0,8,0,1,nonrepeat,0.1044881868696021,1,1,1,1,1,0.08,1.0,1,45,1,0.8,1.238251300000229,-0.1117974473327376,0.9908279984079132,0.8945804425659221,-0.6251489242899809,0.4708276145980853,-0.992360562731589,1.222,0.789,0.744,1.718,2.564,0.003,0.086,-0.345,0.51,0,H,,1
CJ_EEG,1,s01,0,8,1,1,nonrepeat,0.1044881868696021,1,1,1,1,1,0.08,1.0,1,0,1,0.8,1.3636876000000484,-0.1117974473327376,0.9908279984079132,0.8945804425659221,-0.6251489242899809,0.4708276145980853,-0.992360562731589,1.222,0.789,0.744,1.718,2.564,0.003,0.086,-0.345,0.51,0,H,0.8,1
CJ_EEG,1,s01,0,8,2,1,nonrepeat,0.1044881868696019,1,1,1,1,1,0.08,1.0,1,0,1,0.65,1.7004736999997476,-0.1117974473327376,0.9908279984079128,0.8945804425659216,-0.6251489242899809,0.4708276145980853,-0.9923605627315892,2.7927963267948965,2.3597963267948967,2.3147963267948963,0.1472036732051034,0.9932036732051036,1.5737963267948964,0.086,-0.345,0.51,0,H,0.8,1
CJ_EEG,1,s01,0,9,0,1,repeat,0.0786067775766431,1,1,1,1,1,0.08,1.0,1,45,1,0.5,1.0529991000003065,-0.3272108708219529,-0.9134197109580088,0.7728680958292276,0.6786483695188257,-0.5181968025322272,0.7789515844239947,1.835,0.034,2.267,2.23,1.76,2.443,0.086,-0.345,0.51,0,H,,1
CJ_EEG,1,s01,0,9,1,1,repeat,0.0786067775766431,1,1,1,1,1,0.08,1.0,1,45,1,0.5,1.5873178000001644,-0.3272108708219529,-0.9134197109580088,0.7728680958292276,0.6786483695188257,-0.5181968025322272,0.7789515844239947,1.835,0.034,2.267,2.23,1.76,2.443,0.086,-0.345,0.51,0,H,0.5,1
CJ_EEG,1,s01,0,9,2,1,repeat,0.0786067775766431,1,1,1,1,1,0.08,1.0,1,0,1,0.5,1.232145699999819,-0.3272108708219529,-0.9134197109580088,0.7728680958292276,0.6786483695188257,-0.5181968025322272,0.7789515844239947,1.835,0.034,2.267,2.23,1.76,2.443,0.086,-0.345,0.51,0,H,0.5,1
CJ_EEG,1,s01,0,10,0,1,nonrepeat,-0.0073918046644544,1,1,1,1,0,0.01,-1.0,1,45,0,0.25,1.3006580999999642,-0.0858140068801531,-0.8548506919001915,-0.1072231387116782,-0.0613865151012128,0.2166983552089343,0.8482251693975751,0.359,0.057,2.791,2.773,1.093,0.845,0.086,-0.345,0.51,1,H,,1
CJ_EEG,1,s01,0,10,1,1,nonrepeat,-0.0073918046644544,1,1,0,1,0,0.01,-1.0,0,45,0,0.45,1.3108466000003318,-0.0858140068801531,-0.8548506919001915,-0.1072231387116782,-0.0613865151012128,0.2166983552089343,0.8482251693975751,0.359,0.057,2.791,2.773,1.093,0.845,0.086,-0.345,0.51,0,H,0.25,0
CJ_EEG,1,s01,0,10,2,1,nonrepeat,-0.0073918046644543,1,0,0,1,0,0.01,-1.0,0,45,0,0.6,1.5789834000006522,-0.0858140068801531,-0.8548506919001916,-0.1072231387116793,-0.0613865151012117,0.2166983552089343,0.8482251693975756,1.9297963267948963,1.6277963267948965,1.2202036732051038,1.2022036732051031,2.6637963267948965,2.4157963267948963,0.086,-0.345,0.51,0,H,0.45,0
CJ_EEG,1,s01,0,11,0,1,repeat,0.1189182350432672,0,0,0,1,1,0.11,1.0,0,45,1,0.05,1.173240400000395,-0.4733974780375242,-0.3862985394376516,0.8181860698818122,0.4820508300717292,0.7137804272135291,-0.4408118994322914,1.364,0.241,0.714,0.582,0.673,2.922,0.086,-0.345,0.51,1,L,,0
CJ_EEG,1,s01,0,11,1,1,repeat,0.1189182350432672,0,0,1,1,1,0.11,1.0,1,45,1,0.95,0.7031645999995817,-0.4733974780375242,-0.3862985394376516,0.8181860698818122,0.4820508300717292,0.7137804272135291,-0.4408118994322914,1.364,0.241,0.714,0.582,0.673,2.922,0.086,-0.345,0.51,0,H,0.05,1
CJ_EEG,1,s01,0,11,2,1,repeat,0.1189182350432672,0,1,1,1,1,0.11,1.0,1,45,1,0.95,1.1263418999997157,-0.4733974780375242,-0.3862985394376516,0.8181860698818122,0.4820508300717292,0.7137804272135291,-0.4408118994322914,1.364,0.241,0.714,0.582,0.673,2.922,0.086,-0.345,0.51,0,H,0.95,1
CJ_EEG,1,s01,0,12,0,1,nonrepeat,0.1252844327669433,1,1,1,1,1,0.11,1.0,1,45,1,0.25,1.8373373999993416,-0.1530597623221446,0.1688339020668794,-0.5523383298111041,0.6353582249978305,0.8859037061817491,-0.2329911445115504,2.809,0.459,1.395,2.213,2.401,1.872,0.086,-0.345,0.51,0,H,,1
CJ_EEG,1,s01,0,12,1,1,nonrepeat,0.1252844327669433,1,1,1,1,1,0.11,1.0,1,0,1,0.55,1.7533802999996624,-0.1530597623221446,0.1688339020668794,-0.5523383298111041,0.6353582249978305,0.8859037061817491,-0.2329911445115504,2.809,0.459,1.395,2.213,2.401,1.872,0.086,-0.345,0.51,0,H,0.25,1
CJ_EEG,1,s01,0,12,2,1,nonrepeat,0.1252844327669432,1,1,1,1,1,0.11,1.0,1,45,1,0.8,1.5616040000004432,-0.1530597623221446,0.1688339020668796,-0.5523383298111041,0.6353582249978305,0.8859037061817491,-0.232991144511551,1.2382036732051036,2.0297963267948966,2.965796326794897,0.6422036732051035,0.8302036732051032,0.3012036732051033,0.086,-0.345,0.51,0,H,0.55,1
CJ_EEG,1,s01,0,13,0,1,repeat,-0.0237632407767283,1,1,1,0,1,-0.01,1.0,1,45,0,0.35,1.813465500000348,0.0669747384880663,0.5044504923190811,0.1122927125406511,0.1056905743880023,-0.4698136998322911,-0.4621742625638799,0.419,0.98,1.134,2.005,1.779,1.782,0.086,-0.345,0.51,0,H,,1
CJ_EEG,1,s01,0,13,1,0,repeat,-0.0237632407767283,1,1,1,0,1,-0.01,1.0,0,0,0,0.55,3.319379800000206,0.0669747384880663,0.5044504923190811,0.1122927125406511,0.1056905743880023,-0.4698136998322911,-0.4621742625638799,0.419,0.98,1.134,2.005,1.779,1.782,0.086,-0.345,0.51,0,H,0.35,0
CJ_EEG,1,s01,0,13,2,0,repeat,-0.0237632407767283,1,1,1,0,1,-0.01,1.0,0,45,0,0.6,1.3540272000000186,0.0669747384880663,0.5044504923190811,0.1122927125406511,0.1056905743880023,-0.4698136998322911,-0.4621742625638799,0.419,0.98,1.134,2.005,1.779,1.782,0.086,-0.345,0.51,0,H,0.55,0
CJ_EEG,1,s01,0,14,0,0,repeat,-0.0869221580222505,1,1,1,0,0,-0.11,-1.0,0,45,1,0.25,3.088448100000278,-0.4280795039849389,0.1438877607300575,-0.401058764416592,0.4713462641559668,0.6883156363188259,-0.9959443409368224,2.917,2.02,1.806,0.993,0.663,3.14,0.086,-0.345,0.51,1,H,,0
CJ_EEG,1,s01,0,14,1,0,repeat,-0.0869221580222505,1,1,0,0,0,-0.11,-1.0,1,0,1,0.1,3.1368583000003127,-0.4280795039849389,0.1438877607300575,-0.401058764416592,0.4713462641559668,0.6883156363188259,-0.9959443409368224,2.917,2.02,1.806,0.993,0.663,3.14,0.086,-0.345,0.51,0,L,0.25,1
CJ_EEG,1,s01,0,14,2,0,repeat,-0.0869221580222505,1,0,0,0,0,-0.11,-1.0,1,45,1,0.35,1.275969599999371,-0.4280795039849389,0.1438877607300575,-0.401058764416592,0.4713462641559668,0.6883156363188259,-0.9959443409368224,2.917,2.02,1.806,0.993,0.663,3.14,0.086,-0.345,0.51,0,H,0.1,1
CJ_EEG,1,s01,0,15,0,0,nonrepeat,0.1199321498090619,0,0,0,1,1,0.11,1.0,1,45,1,0.2,2.088395699999637,0.6419603631504786,-0.1321692800485003,-0.3847893594639436,0.9220730629922146,0.3715149301087422,-0.6989968178846202,0.926,1.23,2.9,0.816,2.603,1.689,0.086,-0.345,0.51,1,H,,1
CJ_EEG,1,s01,0,15,1,1,nonrepeat,0.1199321498090619,0,0,1,1,1,0.11,1.0,1,45,1,0.45,1.169270499999584,0.6419603631504786,-0.1321692800485003,-0.3847893594639436,0.9220730629922146,0.3715149301087422,-0.6989968178846202,0.926,1.23,2.9,0.816,2.603,1.689,0.086,-0.345,0.51,0,H,0.2,1
CJ_EEG,1,s01,0,15,2,1,nonrepeat,0.1199321498090618,0,1,1,1,1,0.11,1.0,1,45,1,0.65,1.290479699999196,0.6419603631504782,-0.1321692800485003,-0.3847893594639447,0.9220730629922148,0.3715149301087434,-0.6989968178846202,2.4967963267948967,2.8007963267948965,1.3292036732051038,2.3867963267948964,1.0322036732051032,0.1182036732051035,0.086,-0.345,0.51,0,H,0.45,1
CJ_EEG,1,s01,0,16,0,1,repeat,0.0302945269030419,1,1,1,1,1,0.01,1.0,1,45,1,0.4,1.078072700000121,0.0185916357881301,0.3384107019456283,-0.3740847935481811,0.3358642228561582,-0.6771158051951498,0.5401011995716657,0.4,2.616,1.325,2.617,1.444,0.966,0.086,-0.345,0.51,0,H,,1
CJ_EEG,1,s01,0,16,1,1,repeat,0.0302945269030419,1,1,1,1,1,0.01,1.0,1,45,1,0.5,1.355079100000694,0.0185916357881301,0.3384107019456283,-0.3740847935481811,0.3358642228561582,-0.6771158051951498,0.5401011995716657,0.4,2.616,1.325,2.617,1.444,0.966,0.086,-0.345,0.51,0,H,0.4,1
CJ_EEG,1,s01,0,16,2,1,repeat,0.0302945269030419,1,1,1,1,1,0.01,1.0,1,45,1,0.75,1.4173243000004732,0.0185916357881301,0.3384107019456283,-0.3740847935481811,0.3358642228561582,-0.6771158051951498,0.5401011995716657,0.4,2.616,1.325,2.617,1.444,0.966,0.086,-0.345,0.51,0,H,0.5,1
CJ_EEG,1,s01,0,17,0,1,nonrepeat,0.0047588839820037,1,1,1,1,1,0.01,1.0,1,0,1,0.55,1.7020353999996587,0.8059723239923415,-0.2711883308536056,-0.9485517686527124,-0.1667826881853225,-0.035921724206509,0.6450254917978302,2.28,1.857,1.591,1.898,2.763,0.646,0.086,-0.345,0.51,0,H,,1
CJ_EEG,1,s01,0,17,1,1,nonrepeat,0.0047588839820037,1,1,1,1,1,0.01,1.0,1,45,1,0.45,4.592665699999998,0.8059723239923415,-0.2711883308536056,-0.9485517686527124,-0.1667826881853225,-0.035921724206509,0.6450254917978302,2.28,1.857,1.591,1.898,2.763,0.646,0.086,-0.345,0.51,0,H,0.55,1
CJ_EEG,1,s01,0,17,2,1,nonrepeat,0.0047588839820037,1,1,1,1,1,0.01,1.0,1,45,1,0.6,2.420601899999383,0.8059723239923415,-0.271188330853605,-0.9485517686527116,-0.166782688185323,-0.035921724206509,0.64502549179783,0.7092036732051032,0.2862036732051036,0.0202036732051036,0.3272036732051031,1.1922036732051031,2.2167963267948965,0.086,-0.345,0.51,0,H,0.45,1
CJ_EEG,1,s01,0,18,0,1,repeat,0.0128149396486704,1,1,1,0,1,-0.01,1.0,1,45,0,0.95,1.4209690000006958,-0.0094196341960434,-0.3424897453587748,0.4708276145980853,-0.9062989232474794,0.9144336257238036,-0.0501632996275686,0.389,1.829,2.564,1.534,0.819,0.373,0.086,-0.345,0.51,0,H,,1
CJ_EEG,1,s01,0,18,1,0,repeat,0.0128149396486704,1,1,1,0,1,-0.01,1.0,0,0,0,0.9,1.2407030000003942,-0.0094196341960434,-0.3424897453587748,0.4708276145980853,-0.9062989232474794,0.9144336257238036,-0.0501632996275686,0.389,1.829,2.564,1.534,0.819,0.373,0.086,-0.345,0.51,0,H,0.95,0
CJ_EEG,1,s01,0,18,2,0,repeat,0.0128149396486704,1,1,1,0,1,-0.01,1.0,0,0,0,0.95,1.2992517000002408,-0.0094196341960434,-0.3424897453587748,0.4708276145980853,-0.9062989232474794,0.9144336257238036,-0.0501632996275686,0.389,1.829,2.564,1.534,0.819,0.373,0.086,-0.345,0.51,0,H,0.9,0
CJ_EEG,1,s01,0,19,0,0,nonrepeat,0.1313913057116782,1,1,1,1,1,0.11,1.0,0,45,1,0.6,1.7362898000001223,-0.5019273975795793,0.1830754774879386,0.6770924208451816,0.1948173425194641,0.7219385140398211,-0.4866485230427567,2.946,2.677,2.483,2.04,2.247,2.94,0.086,-0.345,0.51,0,H,,0
CJ_EEG,1,s01,0,19,1,1,nonrepeat,0.1313913057116782,1,1,1,1,1,0.11,1.0,1,45,1,0.45,3.2291999999997643,-0.5019273975795793,0.1830754774879386,0.6770924208451816,0.1948173425194641,0.7219385140398211,-0.4866485230427567,2.946,2.677,2.483,2.04,2.247,2.94,0.086,-0.345,0.51,0,H,0.6,1
CJ_EEG,1,s01,0,19,2,1,nonrepeat,0.1313913057116786,1,1,1,1,1,0.11,1.0,1,45,1,0.85,3.1380958999998256,-0.5019273975795782,0.1830754774879397,0.6770924208451805,0.1948173425194641,0.7219385140398211,-0.4866485230427556,1.3752036732051032,1.106203673205103,0.912203673205104,0.4692036732051035,0.6762036732051033,1.369203673205103,0.086,-0.345,0.51,0,H,0.45,1
CJ_EEG,1,s01,0,20,0,1,repeat,-0.0850516221099765,1,1,1,0,1,-0.11,1.0,1,45,0,0.85,0.9546893000006094,0.3185575187877474,0.0134986776091896,-0.4443489089375879,0.0415099475933631,-0.1489573345590299,-0.2905696331535418,1.053,0.398,1.789,0.409,1.905,2.863,0.086,-0.345,0.51,0,H,,1
CJ_EEG,1,s01,0,20,1,0,repeat,-0.0850516221099765,1,1,1,0,1,-0.11,1.0,0,0,0,0.75,1.1433595999997124,0.3185575187877474,0.0134986776091896,-0.4443489089375879,0.0415099475933631,-0.1489573345590299,-0.2905696331535418,1.053,0.398,1.789,0.409,1.905,2.863,0.086,-0.345,0.51,0,H,0.85,0
CJ_EEG,1,s01,0,20,2,0,repeat,-0.0850516221099765,1,1,1,0,1,-0.11,1.0,0,45,0,0.9,1.1480422000004182,0.3185575187877474,0.0134986776091896,-0.4443489089375879,0.0415099475933631,-0.1489573345590299,-0.2905696331535418,1.053,0.398,1.789,0.409,1.905,2.863,0.086,-0.345,0.51,0,H,0.75,0
CJ_EEG,1,s01,0,21,0,0,nonrepeat,0.2238347324861094,1,1,1,1,1,0.21,1.0,0,45,1,0.7,0.826202999999623,0.7519776135555838,0.2676279369983408,0.6006980481610723,0.4514930809980855,-0.6022306124847476,-0.1265576723116782,0.688,1.073,2.513,0.57,1.727,0.343,0.086,-0.345,0.51,0,H,,0
CJ_EEG,1,s01,0,21,1,1,nonrepeat,0.2238347324861094,1,1,1,1,1,0.21,1.0,1,45,1,0.75,1.8727831999995035,0.7519776135555838,0.2676279369983408,0.6006980481610723,0.4514930809980855,-0.6022306124847476,-0.1265576723116782,0.688,1.073,2.513,0.57,1.727,0.343,0.086,-0.345,0.51,0,H,0.7,1
CJ_EEG,1,s01,0,21,2,1,nonrepeat,0.2238347324861092,1,1,1,1,1,0.21,1.0,1,45,1,0.85,4.016931800000748,0.7519776135555831,0.2676279369983408,0.6006980481610723,0.451493080998085,-0.6022306124847472,-0.1265576723116784,2.2587963267948963,2.6437963267948965,0.9422036732051032,2.1407963267948964,0.1562036732051037,1.9137963267948963,0.086,-0.345,0.51,0,H,0.75,1
CJ_EEG,1,s01,1,0,0,1,repeat,-0.2228130229369921,1,1,1,0,0,-0.21,-1.0,1,0,1,0.75,1.2211335000001782,0.1693525516247602,-0.3099041667535417,-0.6226024452005103,-0.2773185881483087,-0.5085295357322271,0.2121240465878748,2.03,0.271,1.719,1.287,0.193,0.476,0.086,-0.345,0.51,1,H,,1
CJ_EEG,1,s01,1,0,1,0,repeat,-0.2228130229369921,1,1,0,0,0,-0.21,-1.0,1,45,1,0.35,1.747982099999717,0.1693525516247602,-0.3099041667535417,-0.6226024452005103,-0.2773185881483087,-0.5085295357322271,0.2121240465878748,2.03,0.271,1.719,1.287,0.193,0.476,0.086,-0.345,0.51,0,H,0.75,1
CJ_EEG,1,s01,1,0,2,0,repeat,-0.2228130229369921,1,0,0,0,1,-0.21,1.0,1,45,0,0.1,2.9985882999999376,0.1693525516247602,-0.3099041667535417,-0.6226024452005103,-0.2773185881483087,-0.5085295357322271,0.2121240465878748,2.03,0.271,1.719,1.287,0.193,0.476,0.086,-0.345,0.51,1,L,0.35,1
CJ_EEG,1,s01,1,1,0,0,nonrepeat,0.0917635862055732,0,0,1,1,1,0.11,1.0,0,45,1,0.35,1.1464688999994903,-0.2457235399589024,-0.1362249391116785,-0.1265576723116782,-0.3705010153429481,0.982669911581621,0.4469187723770256,1.867,1.91,0.343,1.818,2.363,2.139,0.086,-0.345,0.51,0,H,,0
CJ_EEG,1,s01,1,1,1,1,nonrepeat,0.0917635862055732,0,1,1,1,1,0.11,1.0,1,45,1,0.45,1.0698336000004929,-0.2457235399589024,-0.1362249391116785,-0.1265576723116782,-0.3705010153429481,0.982669911581621,0.4469187723770256,1.867,1.91,0.343,1.818,2.363,2.139,0.086,-0.345,0.51,0,H,0.35,1
CJ_EEG,1,s01,1,1,2,1,nonrepeat,0.0917635862055732,1,1,1,1,1,0.11,1.0,1,45,1,0.45,0.9362999000004492,-0.2457235399589024,-0.136224939111678,-0.1265576723116784,-0.3705010153429481,0.982669911581621,0.4469187723770256,0.2962036732051034,0.3392036732051036,1.9137963267948963,0.2472036732051035,0.7922036732051034,0.5682036732051032,0.086,-0.345,0.51,0,H,0.45,1
CJ_EEG,1,s01,1,2,0,1,repeat,0.0958270400520741,1,1,1,1,0,0.11,-1.0,1,0,0,0.35,1.6706815999996252,-0.8380626373896614,-0.6012400820689212,0.4871437882506699,0.0038314108091896,0.6221071799925975,0.9011825807185704,3.078,2.985,0.584,1.965,0.637,2.395,0.086,-0.345,0.51,1,H,,1
CJ_EEG,1,s01,1,2,1,1,repeat,0.0958270400520741,1,1,0,1,0,0.11,-1.0,0,0,0,0.6,2.620654700000159,-0.8380626373896614,-0.6012400820689212,0.4871437882506699,0.0038314108091896,0.6221071799925975,0.9011825807185704,3.078,2.985,0.584,1.965,0.637,2.395,0.086,-0.345,0.51,0,H,0.35,0
CJ_EEG,1,s01,1,2,2,1,repeat,0.0958270400520741,1,0,0,1,0,0.11,-1.0,0,45,0,0.75,1.5587936999991143,-0.8380626373896614,-0.6012400820689212,0.4871437882506699,0.0038314108091896,0.6221071799925975,0.9011825807185704,3.078,2.985,0.584,1.965,0.637,2.395,0.086,-0.345,0.51,0,H,0.6,0
CJ_EEG,1,s01,1,3,0,1,nonrepeat,-0.2306253433913635,0,0,0,0,0,-0.21,-1.0,0,0,1,0.15,0.883005100000446,-0.8329696792107213,0.9765864229868536,-0.0165404219065729,0.1764733393352904,-0.7555380074108488,-0.9317637141421826,3.076,2.347,1.957,0.462,0.096,1.544,0.086,-0.345,0.51,0,H,,0
CJ_EEG,1,s01,1,3,1,0,nonrepeat,-0.2306253433913635,0,0,0,0,0,-0.21,-1.0,1,0,1,0.6,0.9860109999999622,-0.8329696792107213,0.9765864229868536,-0.0165404219065729,0.1764733393352904,-0.7555380074108488,-0.9317637141421826,3.076,2.347,1.957,0.462,0.096,1.544,0.086,-0.345,0.51,0,H,0.15,1
CJ_EEG,1,s01,1,3,2,0,nonrepeat,-0.2306253433913637,0,0,0,0,0,-0.21,-1.0,1,45,1,0.9,1.302919299999303,-0.8329696792107224,0.9765864229868536,-0.0165404219065734,0.1764733393352908,-0.7555380074108485,-0.9317637141421826,1.505203673205104,0.7762036732051034,0.3862036732051033,2.0327963267948967,1.6667963267948966,3.1147963267948966,0.086,-0.345,0.51,0,H,0.6,1
CJ_EEG,1,s01,1,4,0,0,nonrepeat,-0.192349510239651,0,0,0,0,0,-0.21,-1.0,1,45,1,-0.1,1.7172104000001127,-0.5905355161531587,-0.6419837475004465,0.8054536744344607,-0.5294200180058708,-0.2253517072431397,0.0277402530302488,1.41,3.001,0.709,1.386,1.875,2.738,0.086,-0.345,0.51,0,L,,1
CJ_EEG,1,s01,1,4,1,0,nonrepeat,-0.192349510239651,0,0,0,0,0,-0.21,-1.0,1,0,1,0.15,1.5187603000003946,-0.5905355161531587,-0.6419837475004465,0.8054536744344607,-0.5294200180058708,-0.2253517072431397,0.0277402530302488,1.41,3.001,0.709,1.386,1.875,2.738,0.086,-0.345,0.51,0,H,-0.1,1
CJ_EEG,1,s01,1,4,2,0,nonrepeat,-0.1923495102396508,0,0,0,0,0,-0.21,-1.0,1,0,1,0.15,1.1263914000001023,-0.5905355161531592,-0.6419837475004453,0.8054536744344609,-0.5294200180058715,-0.2253517072431397,0.02774025303025,2.9807963267948967,1.4302036732051029,2.2797963267948966,2.9567963267948967,0.3042036732051034,1.167203673205103,0.086,-0.345,0.51,0,H,0.15,1
CJ_EEG,1,s01,1,5,0,0,repeat,-0.1138252768643268,0,0,0,0,0,-0.11,-1.0,1,0,1,0.55,1.0695885000004637,0.4443722932875555,-0.4825460952796425,0.3236504769666881,-0.530929197979579,-0.6389186188530952,0.2014194806721123,2.138,1.774,1.051,1.755,1.429,1.099,0.086,-0.345,0.51,0,H,,1
CJ_EEG,1,s01,1,5,1,0,repeat,-0.1138252768643268,0,0,0,0,0,-0.11,-1.0,1,45,1,0.55,5.357922700000017,0.4443722932875555,-0.4825460952796425,0.3236504769666881,-0.530929197979579,-0.6389186188530952,0.2014194806721123,2.138,1.774,1.051,1.755,1.429,1.099,0.086,-0.345,0.51,0,H,0.55,1
CJ_EEG,1,s01,1,5,2,0,repeat,-0.1138252768643268,0,0,0,0,0,-0.11,-1.0,1,45,1,0.6,2.5646118000004208,0.4443722932875555,-0.4825460952796425,0.3236504769666881,-0.530929197979579,-0.6389186188530952,0.2014194806721123,2.138,1.774,1.051,1.755,1.429,1.099,0.086,-0.345,0.51,0,H,0.55,1
CJ_EEG,1,s01,1,6,0,0,repeat,0.1035607136967879,0,0,0,1,0,0.11,-1.0,1,45,0,0.05,1.5060561000000234,0.7748959253608168,-0.7702982323897893,0.3547268755982131,0.4229631614560306,0.5940959100084238,-0.7550193578529674,0.697,1.661,0.532,1.012,0.626,1.667,0.086,-0.345,0.51,0,L,,1
CJ_EEG,1,s01,1,6,1,1,repeat,0.1035607136967879,0,0,0,1,1,0.11,1.0,0,45,1,0.3,0.7865147000002253,0.7748959253608168,-0.7702982323897893,0.3547268755982131,0.4229631614560306,0.5940959100084238,-0.7550193578529674,0.697,1.661,0.532,1.012,0.626,1.667,0.086,-0.345,0.51,1,H,0.05,0
CJ_EEG,1,s01,1,6,2,1,repeat,0.1035607136967879,0,0,1,1,1,0.11,1.0,1,0,1,0.8,1.2948179999993954,0.7748959253608168,-0.7702982323897893,0.3547268755982131,0.4229631614560306,0.5940959100084238,-0.7550193578529674,0.697,1.661,0.532,1.012,0.626,1.667,0.086,-0.345,0.51,0,H,0.3,1
CJ_EEG,1,s01,1,7,0,1,nonrepeat,-0.2195983954536481,0,1,1,0,1,-0.21,1.0,1,0,0,0.25,4.293185399999857,0.1479434197932352,0.2574420206404595,-0.5701636834373961,-0.9908513827578812,-0.957228505036886,0.7952677580765795,1.12,1.077,1.402,3.138,1.554,0.705,0.086,-0.345,0.51,0,H,,1
CJ_EEG,1,s01,1,7,1,0,nonrepeat,-0.2195983954536481,1,1,1,0,1,-0.21,1.0,0,45,0,0.75,1.251788999999917,0.1479434197932352,0.2574420206404595,-0.5701636834373961,-0.9908513827578812,-0.957228505036886,0.7952677580765795,1.12,1.077,1.402,3.138,1.554,0.705,0.086,-0.345,0.51,0,H,0.25,0
CJ_EEG,1,s01,1,7,2,0,nonrepeat,-0.2195983954536483,1,1,1,0,0,-0.21,-1.0,0,45,1,0.1,3.2975558999996792,0.1479434197932352,0.2574420206404595,-0.5701636834373967,-0.9908513827578812,-0.9572285050368864,0.7952677580765797,2.6907963267948967,2.6477963267948965,2.9727963267948967,1.5672036732051031,3.124796326794897,2.2757963267948966,0.086,-0.345,0.51,1,L,0.75,0
CJ_EEG,1,s01,1,8,0,0,nonrepeat,-0.2883455360860242,1,1,0,0,1,-0.31,1.0,1,0,0,0.05,3.3413792999999714,-0.6231210947583918,-0.6995154674425016,0.3959891905876203,0.1617131143563501,-0.3307946490271858,-0.6343443102320363,0.148,0.118,2.119,2.027,1.308,2.998,0.086,-0.345,0.51,1,L,,1
CJ_EEG,1,s01,1,8,1,0,nonrepeat,-0.2883455360860242,1,0,1,0,0,-0.31,-1.0,0,0,1,0.35,0.8570650000001478,-0.6231210947583918,-0.6995154674425016,0.3959891905876203,0.1617131143563501,-0.3307946490271858,-0.6343443102320363,0.148,0.118,2.119,2.027,1.308,2.998,0.086,-0.345,0.51,1,H,0.05,0
CJ_EEG,1,s01,1,8,2,0,nonrepeat,-0.2883455360860242,0,1,0,0,0,-0.31,-1.0,1,45,1,0.7,1.2036238999999114,-0.6231210947583921,-0.6995154674425019,0.3959891905876203,0.1617131143563501,-0.3307946490271853,-0.6343443102320363,1.7187963267948965,1.6887963267948964,0.5482036732051037,0.4562036732051036,2.8787963267948964,1.4272036732051037,0.086,-0.345,0.51,0,H,0.35,1
CJ_EEG,1,s01,1,9,0,0,repeat,0.4071890217112955,1,0,0,1,1,0.41,1.0,1,0,1,0.3,1.2105272999997396,0.7295779513082323,-0.0903883155012126,0.7601357003818763,0.6399325336188897,0.2498025833720483,0.1540736770879387,2.25,1.928,2.262,0.644,1.08,2.024,0.086,-0.345,0.51,1,H,,1
CJ_EEG,1,s01,1,9,1,1,repeat,0.4071890217112955,0,0,1,1,1,0.41,1.0,1,0,1,0.55,1.116632500000378,0.7295779513082323,-0.0903883155012126,0.7601357003818763,0.6399325336188897,0.2498025833720483,0.1540736770879387,2.25,1.928,2.262,0.644,1.08,2.024,0.086,-0.345,0.51,0,H,0.3,1
CJ_EEG,1,s01,1,9,2,1,repeat,0.4071890217112955,0,1,1,1,1,0.41,1.0,1,0,1,0.75,1.1275095999999394,0.7295779513082323,-0.0903883155012126,0.7601357003818763,0.6399325336188897,0.2498025833720483,0.1540736770879387,2.25,1.928,2.262,0.644,1.08,2.024,0.086,-0.345,0.51,0,H,0.55,1
CJ_EEG,1,s01,1,10,0,1,nonrepeat,-0.4252581105498828,1,1,1,0,0,-0.41,-1.0,1,0,1,0.2,1.3702649000006204,-0.6506137151846842,-0.8899827495948944,-0.7428056119634971,0.5716962477610725,-0.6852738920214417,-0.1545689422958519,1.708,1.614,0.101,2.188,3.018,0.332,0.086,-0.345,0.51,1,H,,1
CJ_EEG,1,s01,1,10,1,0,nonrepeat,-0.4252581105498828,1,1,0,0,0,-0.41,-1.0,1,45,1,0.7,2.5083888999997725,-0.6506137151846842,-0.8899827495948944,-0.7428056119634971,0.5716962477610725,-0.6852738920214417,-0.1545689422958519,1.708,1.614,0.101,2.188,3.018,0.332,0.086,-0.345,0.51,0,H,0.2,1
CJ_EEG,1,s01,1,10,2,0,nonrepeat,-0.4252581105498828,1,0,0,0,0,-0.41,-1.0,1,45,1,0.7,1.5724543000005724,-0.6506137151846836,-0.889982749594895,-0.7428056119634971,0.5716962477610725,-0.6852738920214417,-0.1545689422958517,0.1372036732051036,0.0432036732051033,1.6717963267948963,0.6172036732051036,1.4472036732051032,1.9027963267948969,0.086,-0.345,0.51,0,H,0.7,1
CJ_EEG,1,s01,1,11,0,0,repeat,0.3270535772026376,0,0,0,1,1,0.31,1.0,1,45,1,0.25,1.2491129,0.9052850084816846,-0.0257358078486277,-0.6995154674425016,0.8339835939765154,0.4611603477980855,0.4871437882506699,2.319,2.759,0.118,2.291,0.997,0.584,0.086,-0.345,0.51,1,H,,1
CJ_EEG,1,s01,1,11,1,1,repeat,0.3270535772026376,0,0,1,1,1,0.31,1.0,1,0,1,0.6,1.131750099999408,0.9052850084816846,-0.0257358078486277,-0.6995154674425016,0.8339835939765154,0.4611603477980855,0.4871437882506699,2.319,2.759,0.118,2.291,0.997,0.584,0.086,-0.345,0.51,0,H,0.25,1
CJ_EEG,1,s01,1,11,2,1,repeat,0.3270535772026376,0,1,1,1,1,0.31,1.0,1,45,1,0.7,1.240939499999513,0.9052850084816846,-0.0257358078486277,-0.6995154674425016,0.8339835939765154,0.4611603477980855,0.4871437882506699,2.319,2.759,0.118,2.291,0.997,0.584,0.086,-0.345,0.51,0,H,0.6,1
CJ_EEG,1,s01,1,12,0,1,nonrepeat,0.3283268167473728,1,1,1,1,1,0.31,1.0,1,45,1,0.4,2.095124800000121,0.8365300730659855,0.3501525669771537,-0.0486541196538603,0.433667727371793,0.8176674203239311,-0.4194027676007658,2.292,2.101,2.768,0.563,0.857,0.228,0.086,-0.345,0.51,0,H,,1
CJ_EEG,1,s01,1,12,1,1,nonrepeat,0.3283268167473728,1,1,1,1,1,0.31,1.0,1,0,1,0.7,1.5031269999999497,0.8365300730659855,0.3501525669771537,-0.0486541196538603,0.433667727371793,0.8176674203239311,-0.4194027676007658,2.292,2.101,2.768,0.563,0.857,0.228,0.086,-0.345,0.51,0,H,0.4,1
CJ_EEG,1,s01,1,12,2,1,nonrepeat,0.3283268167473727,1,1,1,1,1,0.31,1.0,1,45,1,0.85,1.364603399999396,0.8365300730659855,0.3501525669771537,-0.0486541196538603,0.4336677273717926,0.8176674203239306,-0.4194027676007659,0.7212036732051033,0.5302036732051034,1.1972036732051032,2.1337963267948963,2.4277963267948968,1.7987963267948963,0.086,-0.345,0.51,0,H,0.7,1
CJ_EEG,1,s01,1,13,0,1,repeat,-0.2138139045308657,1,1,1,0,1,-0.21,1.0,1,45,0,0.5,1.930645399999776,-0.9821746463737078,-0.6455207570057435,-0.7657239237687301,0.6597857167767708,0.0598539507775368,0.3908962324086791,0.007,1.71,0.092,0.919,1.987,2.117,0.086,-0.345,0.51,0,H,,1
CJ_EEG,1,s01,1,13,1,0,repeat,-0.2138139045308657,1,1,1,0,1,-0.21,1.0,0,45,0,0.5,1.0953459999991535,-0.9821746463737078,-0.6455207570057435,-0.7657239237687301,0.6597857167767708,0.0598539507775368,0.3908962324086791,0.007,1.71,0.092,0.919,1.987,2.117,0.086,-0.345,0.51,0,H,0.5,0
CJ_EEG,1,s01,1,13,2,0,repeat,-0.2138139045308657,1,1,1,0,1,-0.21,1.0,0,45,0,0.65,1.0784219999995912,-0.9821746463737078,-0.6455207570057435,-0.7657239237687301,0.6597857167767708,0.0598539507775368,0.3908962324086791,0.007,1.71,0.092,0.919,1.987,2.117,0.086,-0.345,0.51,0,H,0.5,0
CJ_EEG,1,s01,1,14,0,0,nonrepeat,0.3302759994693043,1,1,1,1,1,0.31,1.0,0,0,1,0.15,2.0087319000003845,0.4530022609717927,0.7168455558608811,0.6883156363188259,0.0185916357881301,0.209058917940523,-0.1041580100643269,2.571,2.245,0.663,0.4,1.096,1.219,0.086,-0.345,0.51,0,H,,0
CJ_EEG,1,s01,1,14,1,1,nonrepeat,0.3302759994693043,1,1,1,1,1,0.31,1.0,1,0,1,0.8,1.2685374000002412,0.4530022609717927,0.7168455558608811,0.6883156363188259,0.0185916357881301,0.209058917940523,-0.1041580100643269,2.571,2.245,0.663,0.4,1.096,1.219,0.086,-0.345,0.51,0,H,0.15,1
CJ_EEG,1,s01,1,14,2,1,nonrepeat,0.3302759994693044,1,1,1,1,1,0.31,1.0,1,45,1,0.7,0.974509399999988,0.4530022609717939,0.7168455558608811,0.6883156363188265,0.0185916357881299,0.209058917940523,-0.1041580100643275,1.0002036732051032,0.6742036732051035,2.233796326794897,1.9707963267948965,2.6667963267948966,2.789796326794897,0.086,-0.345,0.51,0,H,0.8,1
CJ_EEG,1,s01,1,15,0,1,repeat,-0.3262911924324611,1,1,1,0,0,-0.31,-1.0,1,45,1,-0.1,1.3909052999997584,-0.431616513490236,-0.7937351937529036,-0.168338636858966,0.8578924361975752,-0.4749066580112319,-0.9470425886790046,1.794,0.081,2.815,2.412,1.777,1.55,0.086,-0.345,0.51,1,L,,1
CJ_EEG,1,s01,1,15,1,0,repeat,-0.3262911924324611,1,1,0,0,0,-0.31,-1.0,1,0,1,-0.3,1.1740872000000309,-0.431616513490236,-0.7937351937529036,-0.168338636858966,0.8578924361975752,-0.4749066580112319,-0.9470425886790046,1.794,0.081,2.815,2.412,1.777,1.55,0.086,-0.345,0.51,0,L,-0.1,1
CJ_EEG,1,s01,1,15,2,0,repeat,-0.3262911924324611,1,0,0,0,0,-0.31,-1.0,1,0,1,-0.05,1.0200905000001512,-0.431616513490236,-0.7937351937529036,-0.168338636858966,0.8578924361975752,-0.4749066580112319,-0.9470425886790046,1.794,0.081,2.815,2.412,1.777,1.55,0.086,-0.345,0.51,0,L,-0.3,1
CJ_EEG,1,s01,1,16,0,0,repeat,-0.224683558849266,0,0,0,0,0,-0.21,-1.0,1,0,1,-0.15,1.797692300000563,-0.6974876379109125,-0.3435270444745372,-0.0470981709802168,0.9526308120658582,-0.2890136844798976,-0.9236056273158902,1.452,1.313,1.945,0.804,1.85,0.03,0.086,-0.345,0.51,0,L,,1
CJ_EEG,1,s01,1,16,1,0,repeat,-0.224683558849266,0,0,0,0,0,-0.21,-1.0,1,45,1,0.15,1.2982784000005267,-0.6974876379109125,-0.3435270444745372,-0.0470981709802168,0.9526308120658582,-0.2890136844798976,-0.9236056273158902,1.452,1.313,1.945,0.804,1.85,0.03,0.086,-0.345,0.51,0,H,-0.15,1
CJ_EEG,1,s01,1,16,2,0,repeat,-0.224683558849266,0,0,0,0,0,-0.21,-1.0,1,0,1,0.1,4.209601300000031,-0.6974876379109125,-0.3435270444745372,-0.0470981709802168,0.9526308120658582,-0.2890136844798976,-0.9236056273158902,1.452,1.313,1.945,0.804,1.85,0.03,0.086,-0.345,0.51,0,L,0.15,1
CJ_EEG,1,s01,1,17,0,0,nonrepeat,0.2216262249852372,0,0,0,1,1,0.21,1.0,1,45,1,0.35,1.0408190999996805,0.7978142371660497,-0.6939038597056795,0.1015881466248881,-0.5854425579742181,0.7769237548924058,0.932777628907977,0.706,1.691,2.709,1.408,0.873,0.759,0.086,-0.345,0.51,1,H,,1
CJ_EEG,1,s01,1,17,1,1,nonrepeat,0.2216262249852372,0,0,1,1,1,0.21,1.0,1,45,1,0.7,1.303126499999962,0.7978142371660497,-0.6939038597056795,0.1015881466248881,-0.5854425579742181,0.7769237548924058,0.932777628907977,0.706,1.691,2.709,1.408,0.873,0.759,0.086,-0.345,0.51,0,H,0.35,1
CJ_EEG,1,s01,1,17,2,1,nonrepeat,0.2216262249852371,0,1,1,1,1,0.21,1.0,1,45,1,0.7,1.1634610000000976,0.7978142371660497,-0.69390385970568,0.1015881466248892,-0.5854425579742181,0.7769237548924053,0.9327776289079768,2.2767963267948965,0.1202036732051032,1.138203673205103,2.9787963267948965,2.443796326794897,2.3297963267948965,0.086,-0.345,0.51,0,H,0.7,1
CJ_EEG,1,s01,1,18,0,1,repeat,0.1031285057318868,1,1,1,1,1,0.11,1.0,1,0,1,0.1,1.3918413999999757,-0.4901855325480538,0.3409571810350983,0.0511772143933633,0.2432004452194005,0.5986702186294832,-0.1250484923379707,1.771,2.615,1.158,2.059,0.943,2.798,0.086,-0.345,0.51,0,L,,1
CJ_EEG,1,s01,1,18,1,1,repeat,0.1031285057318868,1,1,1,1,1,0.11,1.0,1,45,1,0.4,1.163285999999971,-0.4901855325480538,0.3409571810350983,0.0511772143933633,0.2432004452194005,0.5986702186294832,-0.1250484923379707,1.771,2.615,1.158,2.059,0.943,2.798,0.086,-0.345,0.51,0,H,0.1,1
CJ_EEG,1,s01,1,18,2,1,repeat,0.1031285057318868,1,1,1,1,1,0.11,1.0,1,45,1,0.75,1.0991978000001836,-0.4901855325480538,0.3409571810350983,0.0511772143933633,0.2432004452194005,0.5986702186294832,-0.1250484923379707,1.771,2.615,1.158,2.059,0.943,2.798,0.086,-0.345,0.51,0,H,0.4,1
CJ_EEG,1,s01,1,19,0,1,nonrepeat,-0.0931154725599659,1,1,1,0,1,-0.11,1.0,1,0,0,0.6,1.455106500000511,0.8278533366818124,-0.5232897607111677,-0.3761126230797702,-0.6414650979425652,0.095504658030121,0.058816651661774,0.853,1.758,0.245,1.43,2.001,1.155,0.086,-0.345,0.51,0,H,,1
CJ_EEG,1,s01,1,19,1,0,nonrepeat,-0.0931154725599659,1,1,1,0,1,-0.11,1.0,0,0,0,0.8,1.4301778999997623,0.8278533366818124,-0.5232897607111677,-0.3761126230797702,-0.6414650979425652,0.095504658030121,0.058816651661774,0.853,1.758,0.245,1.43,2.001,1.155,0.086,-0.345,0.51,0,H,0.6,0
CJ_EEG,1,s01,1,19,2,0,nonrepeat,-0.0931154725599658,1,1,1,0,1,-0.11,1.0,0,0,0,0.7,1.9066960000000108,0.8278533366818129,-0.5232897607111677,-0.37611262307977,-0.6414650979425647,0.095504658030121,0.0588166516617734,2.4237963267948963,0.1872036732051034,1.8157963267948969,3.0007963267948963,0.4302036732051033,2.725796326794897,0.086,-0.345,0.51,0,H,0.8,0
CJ_EEG,1,s01,1,20,0,0,nonrepeat,0.2330775861045309,1,1,1,1,1,0.21,1.0,0,45,1,0.75,0.777260899999419,0.6190420513452456,0.4071656373613274,0.1148391916301212,0.0812163139091254,-0.7153129915372051,0.8915153139185706,0.935,2.589,1.133,2.717,1.459,0.828,0.086,-0.345,0.51,0,H,,0
CJ_EEG,1,s01,1,20,1,1,nonrepeat,0.2330775861045309,1,1,1,1,1,0.21,1.0,1,45,1,0.95,0.7547345000002679,0.6190420513452456,0.4071656373613274,0.1148391916301212,0.0812163139091254,-0.7153129915372051,0.8915153139185706,0.935,2.589,1.133,2.717,1.459,0.828,0.086,-0.345,0.51,0,H,0.75,1
CJ_EEG,1,s01,1,20,2,1,nonrepeat,0.2330775861045305,1,1,1,1,1,0.21,1.0,1,0,1,0.95,1.0399673000001712,0.6190420513452456,0.4071656373613263,0.1148391916301212,0.0812163139091243,-0.7153129915372051,0.8915153139185709,2.5057963267948966,1.018203673205104,2.703796326794897,1.146203673205104,3.0297963267948966,2.3987963267948964,0.086,-0.345,0.51,0,H,0.95,1
CJ_EEG,1,s01,1,21,0,1,repeat,0.2137274629378856,1,1,1,1,0,0.21,-1.0,1,0,0,0.3,1.9804145999996765,0.9587610693605612,0.9368332879711556,-0.778974968773963,-0.6419837475004465,0.8742086098501596,-0.0664794732801529,2.34,2.381,1.484,3.001,0.736,2.775,0.086,-0.345,0.51,1,H,,1
CJ_EEG,1,s01,1,21,1,1,repeat,0.2137274629378856,1,1,0,1,1,0.21,1.0,0,45,1,0.15,1.0751230000005307,0.9587610693605612,0.9368332879711556,-0.778974968773963,-0.6419837475004465,0.8742086098501596,-0.0664794732801529,2.34,2.381,1.484,3.001,0.736,2.775,0.086,-0.345,0.51,1,H,0.3,0
CJ_EEG,1,s01,1,21,2,1,repeat,0.2137274629378856,1,0,1,1,1,0.21,1.0,1,45,1,0.85,0.9351355999997396,0.9587610693605612,0.9368332879711556,-0.778974968773963,-0.6419837475004465,0.8742086098501596,-0.0664794732801529,2.34,2.381,1.484,3.001,0.736,2.775,0.086,-0.345,0.51,0,H,0.15,1
CJ_EEG,1,s01,2,0,0,1,nonrepeat,0.3200900831114232,0,1,1,1,1,0.31,1.0,1,0,1,0.25,0.9058403999997608,0.656720588129419,-0.7071549047109126,0.6934085944977666,-0.088879135527505,0.9816793811657952,0.384765975113976,2.491,0.115,0.665,1.213,2.349,1.027,0.086,-0.345,0.51,0,H,,1
CJ_EEG,1,s01,2,0,1,1,nonrepeat,0.3200900831114232,1,1,1,1,1,0.31,1.0,1,45,1,0.65,2.078425800000332,0.656720588129419,-0.7071549047109126,0.6934085944977666,-0.088879135527505,0.9816793811657952,0.384765975113976,2.491,0.115,0.665,1.213,2.349,1.027,0.086,-0.345,0.51,0,H,0.25,1
CJ_EEG,1,s01,2,0,2,1,nonrepeat,0.3200900831114232,1,1,1,1,1,0.31,1.0,1,0,1,0.8,1.3796523999999408,0.6567205881294201,-0.7071549047109126,0.6934085944977666,-0.088879135527505,0.9816793811657952,0.3847659751139754,0.9202036732051032,1.6857963267948963,2.2357963267948966,2.7837963267948966,0.7782036732051036,2.5977963267948967,0.086,-0.345,0.51,0,H,0.65,1
CJ_EEG,1,s01,2,1,0,1,repeat,0.303192202657945,1,1,1,1,1,0.31,1.0,1,0,1,0.6,1.2681088999997885,0.221791313387875,0.1632222943300571,-0.000271016953925,0.9597515997763882,0.5451941577506063,-0.0705351323433312,1.091,1.114,2.749,2.372,0.964,0.365,0.086,-0.345,0.51,0,H,,1
CJ_EEG,1,s01,2,1,1,1,repeat,0.303192202657945,1,1,1,1,1,0.31,1.0,1,45,1,0.75,1.127210899999227,0.221791313387875,0.1632222943300571,-0.000271016953925,0.9597515997763882,0.5451941577506063,-0.0705351323433312,1.091,1.114,2.749,2.372,0.964,0.365,0.086,-0.345,0.51,0,H,0.6,1
CJ_EEG,1,s01,2,1,2,1,repeat,0.303192202657945,1,1,1,1,1,0.31,1.0,1,0,1,0.85,1.2197140000007494,0.221791313387875,0.1632222943300571,-0.000271016953925,0.9597515997763882,0.5451941577506063,-0.0705351323433312,1.091,1.114,2.749,2.372,0.964,0.365,0.086,-0.345,0.51,0,H,0.75,1
CJ_EEG,1,s01,2,2,0,1,repeat,-0.222475051348394,1,1,1,0,0,-0.21,-1.0,1,0,1,0.15,1.0540925999994215,-0.2253517072431397,-0.7209245992740269,0.6608230158925332,0.1642595934458202,-0.4647207416533505,-0.7489358692582008,1.875,3.032,2.223,2.028,1.781,3.043,0.086,-0.345,0.51,1,H,,1
CJ_EEG,1,s01,2,2,1,0,repeat,-0.222475051348394,1,1,0,0,0,-0.21,-1.0,1,0,1,0.1,1.0748392999994394,-0.2253517072431397,-0.7209245992740269,0.6608230158925332,0.1642595934458202,-0.4647207416533505,-0.7489358692582008,1.875,3.032,2.223,2.028,1.781,3.043,0.086,-0.345,0.51,0,L,0.15,1
CJ_EEG,1,s01,2,2,2,0,repeat,-0.222475051348394,1,0,0,0,0,-0.21,-1.0,1,0,1,0.1,2.387854900000093,-0.2253517072431397,-0.7209245992740269,0.6608230158925332,0.1642595934458202,-0.4647207416533505,-0.7489358692582008,1.875,3.032,2.223,2.028,1.781,3.043,0.086,-0.345,0.51,0,L,0.1,1
CJ_EEG,1,s01,2,3,0,0,nonrepeat,0.23376132406505,0,0,0,1,1,0.21,1.0,1,45,1,0.5,1.290900099999817,0.0710303975512441,0.1199321498090618,0.8044163753186986,0.3949518914718573,-0.5441802429848117,0.5564173732242501,2.721,1.131,2.433,1.023,0.179,2.182,0.086,-0.345,0.51,1,H,,1
CJ_EEG,1,s01,2,3,1,1,nonrepeat,0.23376132406505,0,0,1,1,1,0.21,1.0,1,0,1,0.85,1.2023989999997866,0.0710303975512441,0.1199321498090618,0.8044163753186986,0.3949518914718573,-0.5441802429848117,0.5564173732242501,2.721,1.131,2.433,1.023,0.179,2.182,0.086,-0.345,0.51,0,H,0.5,1
CJ_EEG,1,s01,2,3,2,1,nonrepeat,0.2337613240650501,0,1,1,1,1,0.21,1.0,1,0,1,1.0,0.892291799999839,0.0710303975512441,0.1199321498090613,0.8044163753186986,0.3949518914718578,-0.5441802429848116,0.5564173732242501,1.1502036732051035,2.701796326794897,0.8622036732051033,2.593796326794896,1.7497963267948966,0.6112036732051034,0.086,-0.345,0.51,0,H,0.85,1
CJ_EEG,1,s01,2,4,0,1,repeat,-0.1006684682353968,1,1,1,0,0,-0.11,-1.0,1,45,1,0.25,1.0203098000001771,-0.0501632996275686,-0.6862644224372687,-0.5996841333952776,-0.2406305817799616,0.5197293668559031,0.4530022609717927,0.373,1.694,1.728,1.869,0.974,2.571,0.086,-0.345,0.51,1,H,,1
CJ_EEG,1,s01,2,4,1,0,repeat,-0.1006684682353968,1,1,0,0,0,-0.11,-1.0,1,45,1,0.15,4.811416999999892,-0.0501632996275686,-0.6862644224372687,-0.5996841333952776,-0.2406305817799616,0.5197293668559031,0.4530022609717927,0.373,1.694,1.728,1.869,0.974,2.571,0.086,-0.345,0.51,0,H,0.25,1
CJ_EEG,1,s01,2,4,2,0,repeat,-0.1006684682353968,1,0,0,0,0,-0.11,-1.0,1,0,1,0.15,1.2395378000001074,-0.0501632996275686,-0.6862644224372687,-0.5996841333952776,-0.2406305817799616,0.5197293668559031,0.4530022609717927,0.373,1.694,1.728,1.869,0.974,2.571,0.086,-0.345,0.51,0,H,0.15,1
CJ_EEG,1,s01,2,5,0,0,nonrepeat,0.1081428171011699,0,0,0,1,0,0.11,-1.0,1,45,0,0.2,1.4776380999992398,0.3705243996929164,-0.000271016953925,0.8563832562238671,0.2070310884089341,-0.8446647755423101,0.0598539507775368,2.109,2.749,0.729,0.474,0.061,1.987,0.086,-0.345,0.51,0,H,,1
CJ_EEG,1,s01,2,5,1,1,nonrepeat,0.1081428171011699,0,0,0,1,0,0.11,-1.0,0,0,0,0.45,2.2525129999994533,0.3705243996929164,-0.000271016953925,0.8563832562238671,0.2070310884089341,-0.8446647755423101,0.0598539507775368,2.109,2.749,0.729,0.474,0.061,1.987,0.086,-0.345,0.51,0,H,0.2,0
CJ_EEG,1,s01,2,5,2,1,nonrepeat,0.1081428171011698,0,0,0,1,1,0.11,1.0,0,45,1,0.3,2.2119102000006023,0.3705243996929164,-0.0002710169539261,0.8563832562238676,0.2070310884089348,-0.8446647755423102,0.0598539507775368,0.5382036732051034,1.178203673205104,2.2997963267948967,2.0447963267948968,1.6317963267948965,0.4162036732051035,0.086,-0.345,0.51,1,H,0.45,0
CJ_EEG,1,s01,2,6,0,1,nonrepeat,0.2126271065791108,0,0,1,1,1,0.21,1.0,1,45,1,0.7,1.2279363000006924,0.8629853943765152,0.058816651661774,0.3745800587560946,0.8477065198396938,-0.5614869470532224,-0.3068390381061902,2.41,1.155,1.031,2.416,1.743,1.843,0.086,-0.345,0.51,0,H,,1
CJ_EEG,1,s01,2,6,1,1,nonrepeat,0.2126271065791108,0,1,1,1,1,0.21,1.0,1,45,1,0.7,1.0680913999995028,0.8629853943765152,0.058816651661774,0.3745800587560946,0.8477065198396938,-0.5614869470532224,-0.3068390381061902,2.41,1.155,1.031,2.416,1.743,1.843,0.086,-0.345,0.51,0,H,0.7,1
CJ_EEG,1,s01,2,6,2,1,nonrepeat,0.2126271065791109,1,1,1,1,1,0.21,1.0,1,45,1,0.9,0.8081766999994215,0.8629853943765152,0.0588166516617734,0.3745800587560952,0.8477065198396938,-0.5614869470532219,-0.3068390381061902,0.8392036732051036,2.725796326794897,2.6017963267948963,0.8452036732051034,0.1722036732051037,0.2722036732051034,0.086,-0.345,0.51,0,H,0.7,1
CJ_EEG,1,s01,2,7,0,1,repeat,0.2023547486282493,1,1,1,1,0,0.21,-1.0,1,45,0,0.6,1.2660755000006247,-0.1571154213853222,0.2314585801878751,-0.9108732318685386,0.952112162507977,0.7540054430871729,0.3445409592403319,0.331,2.658,0.035,2.375,0.882,0.528,0.086,-0.345,0.51,1,H,,1
CJ_EEG,1,s01,2,7,1,1,repeat,0.2023547486282493,1,1,0,1,0,0.21,-1.0,0,0,0,0.85,1.6884654999994382,-0.1571154213853222,0.2314585801878751,-0.9108732318685386,0.952112162507977,0.7540054430871729,0.3445409592403319,0.331,2.658,0.035,2.375,0.882,0.528,0.086,-0.345,0.51,0,H,0.6,0
CJ_EEG,1,s01,2,7,2,1,repeat,0.2023547486282493,1,0,0,1,0,0.21,-1.0,0,45,0,0.3,1.6964105000006384,-0.1571154213853222,0.2314585801878751,-0.9108732318685386,0.952112162507977,0.7540054430871729,0.3445409592403319,0.331,2.658,0.035,2.375,0.882,0.528,0.086,-0.345,0.51,0,H,0.85,0
CJ_EEG,1,s01,2,8,0,1,repeat,0.3294271731061475,0,0,0,1,1,0.31,1.0,0,45,1,0.25,0.7738332000008086,-0.5059830566427568,0.5457128073084876,0.9933744774973834,-0.3832334107903,0.5451941577506063,0.7814980635134647,0.194,0.607,0.788,1.813,0.964,2.442,0.086,-0.345,0.51,1,H,,0
CJ_EEG,1,s01,2,8,1,1,repeat,0.3294271731061475,0,0,1,1,1,0.31,1.0,1,0,1,0.15,1.6404395999998087,-0.5059830566427568,0.5457128073084876,0.9933744774973834,-0.3832334107903,0.5451941577506063,0.7814980635134647,0.194,0.607,0.788,1.813,0.964,2.442,0.086,-0.345,0.51,0,H,0.25,1
CJ_EEG,1,s01,2,8,2,1,repeat,0.3294271731061475,0,1,1,1,1,0.31,1.0,1,0,1,0.25,1.10449460000018,-0.5059830566427568,0.5457128073084876,0.9933744774973834,-0.3832334107903,0.5451941577506063,0.7814980635134647,0.194,0.607,0.788,1.813,0.964,2.442,0.086,-0.345,0.51,0,H,0.15,1
CJ_EEG,1,s01,2,9,0,1,nonrepeat,0.3270613719859607,1,1,1,1,1,0.31,1.0,1,45,1,0.4,4.993484200000239,0.4596511678243782,0.8915153139185706,-0.0802023991433313,0.8187047194396941,0.6531835786241231,-0.7804841487476706,2.144,0.828,1.932,2.285,2.22,1.657,0.086,-0.345,0.51,0,H,,1
CJ_EEG,1,s01,2,9,1,1,nonrepeat,0.3270613719859607,1,1,1,1,1,0.31,1.0,1,0,1,0.7,1.5129509999997026,0.4596511678243782,0.8915153139185706,-0.0802023991433313,0.8187047194396941,0.6531835786241231,-0.7804841487476706,2.144,0.828,1.932,2.285,2.22,1.657,0.086,-0.345,0.51,0,H,0.4,1
CJ_EEG,1,s01,2,9,2,1,nonrepeat,0.3270613719859607,1,1,1,1,1,0.31,1.0,1,0,1,0.85,2.1231121000000712,0.4596511678243782,0.8915153139185709,-0.0802023991433313,0.8187047194396941,0.6531835786241231,-0.7804841487476706,0.5732036732051036,2.3987963267948964,0.3612036732051034,0.7142036732051036,0.6492036732051036,0.0862036732051034,0.086,-0.345,0.51,0,H,0.7,1
CJ_EEG,1,s01,2,10,0,1,nonrepeat,-0.2164468252133164,1,1,1,0,1,-0.21,1.0,1,45,0,0.15,1.9467015999998691,-0.6180281365794512,-0.5538475097848117,-0.241149231337843,0.4744113928033184,-0.2645861927009573,-0.0954812736801533,0.15,1.746,0.298,0.579,1.282,1.926,0.086,-0.345,0.51,0,H,,1
CJ_EEG,1,s01,2,10,1,0,nonrepeat,-0.2164468252133164,1,1,1,0,1,-0.21,1.0,0,45,0,0.4,2.2254911999998512,-0.6180281365794512,-0.5538475097848117,-0.241149231337843,0.4744113928033184,-0.2645861927009573,-0.0954812736801533,0.15,1.746,0.298,0.579,1.282,1.926,0.086,-0.345,0.51,0,H,0.15,0
CJ_EEG,1,s01,2,10,2,0,nonrepeat,-0.2164468252133163,1,1,1,0,1,-0.21,1.0,0,0,0,0.85,1.886540999999852,-0.6180281365794513,-0.5538475097848117,-0.2411492313378429,0.4744113928033178,-0.2645861927009573,-0.0954812736801526,1.7207963267948965,0.1752036732051034,1.8687963267948968,2.1497963267948963,2.8527963267948966,0.3552036732051036,0.086,-0.345,0.51,0,H,0.4,0
CJ_EEG,1,s01,2,11,0,0,repeat,0.3266291640210593,1,1,1,1,1,0.31,1.0,0,0,1,0.3,1.3740443999995475,0.8900061339448633,-0.888992219179068,0.1795384679826415,0.0802257834932995,0.9979487861184424,0.7010480317661776,2.313,3.098,2.034,1.995,2.357,0.668,0.086,-0.345,0.51,0,H,,0
CJ_EEG,1,s01,2,11,1,1,repeat,0.3266291640210593,1,1,1,1,1,0.31,1.0,1,45,1,0.7,1.0978565000004892,0.8900061339448633,-0.888992219179068,0.1795384679826415,0.0802257834932995,0.9979487861184424,0.7010480317661776,2.313,3.098,2.034,1.995,2.357,0.668,0.086,-0.345,0.51,0,H,0.3,1
CJ_EEG,1,s01,2,11,2,1,repeat,0.3266291640210593,1,1,1,1,1,0.31,1.0,1,45,1,0.95,0.8022270999999819,0.8900061339448633,-0.888992219179068,0.1795384679826415,0.0802257834932995,0.9979487861184424,0.7010480317661776,2.313,3.098,2.034,1.995,2.357,0.668,0.086,-0.345,0.51,0,H,0.7,1
CJ_EEG,1,s01,2,12,0,1,repeat,0.317032749247394,1,1,1,1,1,0.31,1.0,1,45,1,0.6,0.9247683000003236,0.8069628544081686,0.7805075330976388,-0.6496231847688577,0.8940617930080409,-0.0685073028117423,0.1387948025511163,2.432,2.27,3.004,0.827,1.205,2.018,0.086,-0.345,0.51,0,H,,1
CJ_EEG,1,s01,2,12,1,1,repeat,0.317032749247394,1,1,1,1,1,0.31,1.0,1,0,1,0.8,1.3770144999998593,0.8069628544081686,0.7805075330976388,-0.6496231847688577,0.8940617930080409,-0.0685073028117423,0.1387948025511163,2.432,2.27,3.004,0.827,1.205,2.018,0.086,-0.345,0.51,0,H,0.6,1
CJ_EEG,1,s01,2,12,2,1,repeat,0.317032749247394,1,1,1,1,1,0.31,1.0,1,45,1,0.75,2.213747100000546,0.8069628544081686,0.7805075330976388,-0.6496231847688577,0.8940617930080409,-0.0685073028117423,0.1387948025511163,2.432,2.27,3.004,0.827,1.205,2.018,0.086,-0.345,0.51,0,H,0.8,1
CJ_EEG,1,s01,2,13,0,1,nonrepeat,0.2032900165843861,1,1,1,1,1,0.21,1.0,1,0,1,0.4,1.425700400000096,-0.3557407903640076,0.1260624071037648,0.9424448957079768,0.2803603324456922,0.0939487093564768,0.1326645452564138,0.253,2.013,0.808,1.068,2.712,1.126,0.086,-0.345,0.51,0,H,,1
CJ_EEG,1,s01,2,13,1,1,nonrepeat,0.2032900165843861,1,1,1,1,1,0.21,1.0,1,45,1,0.7,1.693095199999334,-0.3557407903640076,0.1260624071037648,0.9424448957079768,0.2803603324456922,0.0939487093564768,0.1326645452564138,0.253,2.013,0.808,1.068,2.712,1.126,0.086,-0.345,0.51,0,H,0.4,1
CJ_EEG,1,s01,2,13,2,1,nonrepeat,0.2032900165843865,1,1,1,1,1,0.21,1.0,1,0,1,0.75,1.0942540000005463,-0.3557407903640074,0.1260624071037648,0.9424448957079774,0.2803603324456922,0.0939487093564779,0.1326645452564138,1.823796326794897,0.4422036732051033,2.3787963267948964,2.6387963267948966,1.1412036732051032,2.6967963267948964,0.086,-0.345,0.51,0,H,0.7,1
CJ_EEG,1,s01,2,14,0,1,nonrepeat,0.2342799736229311,1,1,1,1,1,0.21,1.0,1,45,1,0.55,1.7735148000001573,0.2803603324456922,0.7387265685503509,0.457104688734907,-0.1082136691275046,-0.1927661286379067,0.2304680497720481,1.068,0.888,2.143,1.921,0.317,2.054,0.086,-0.345,0.51,0,H,,1
CJ_EEG,1,s01,2,14,1,1,nonrepeat,0.2342799736229311,1,1,1,1,1,0.21,1.0,1,0,1,0.8,1.0022533000001204,0.2803603324456922,0.7387265685503509,0.457104688734907,-0.1082136691275046,-0.1927661286379067,0.2304680497720481,1.068,0.888,2.143,1.921,0.317,2.054,0.086,-0.345,0.51,0,H,0.55,1
CJ_EEG,1,s01,2,14,2,1,nonrepeat,0.2342799736229313,1,1,1,1,1,0.21,1.0,1,0,1,0.85,1.167781400000422,0.2803603324456922,0.7387265685503512,0.457104688734907,-0.108213669127504,-0.1927661286379069,0.2304680497720481,2.6387963267948966,2.4587963267948965,0.5722036732051032,0.3502036732051037,1.8877963267948965,0.4832036732051032,0.086,-0.345,0.51,0,H,0.8,1
CJ_EEG,1,s01,2,15,0,1,repeat,-0.1012657646029355,1,1,1,0,0,-0.11,-1.0,1,45,1,0.25,1.6460075999993933,-0.7784563192160817,-0.8013746310213146,0.5752332572663685,0.916980104813274,-0.1540502927379705,-0.365926706721889,0.087,0.078,2.523,0.818,1.903,0.249,0.086,-0.345,0.51,1,H,,1
CJ_EEG,1,s01,2,15,1,0,repeat,-0.1012657646029355,1,1,0,0,0,-0.11,-1.0,1,0,1,0.45,1.117082699999628,-0.7784563192160817,-0.8013746310213146,0.5752332572663685,0.916980104813274,-0.1540502927379705,-0.365926706721889,0.087,0.078,2.523,0.818,1.903,0.249,0.086,-0.345,0.51,0,H,0.25,1
CJ_EEG,1,s01,2,15,2,0,repeat,-0.1012657646029355,1,0,0,0,0,-0.11,-1.0,1,0,1,0.7,2.0764890000000378,-0.7784563192160817,-0.8013746310213146,0.5752332572663685,0.916980104813274,-0.1540502927379705,-0.365926706721889,0.087,0.078,2.523,0.818,1.903,0.249,0.086,-0.345,0.51,0,H,0.45,1
CJ_EEG,1,s01,2,16,0,0,repeat,-0.1055963380116996,0,0,0,0,0,-0.11,-1.0,1,45,1,0.7,5.057985299999928,-0.7147943419793236,-0.4026147130902362,0.8441695103343967,0.09498600847224,0.0537236934828333,-0.5090481852901082,0.112,2.907,2.295,0.43,1.157,1.378,0.086,-0.345,0.51,0,H,,1
CJ_EEG,1,s01,2,16,1,0,repeat,-0.1055963380116996,0,0,0,0,0,-0.11,-1.0,1,45,1,0.75,1.4803712000002631,-0.7147943419793236,-0.4026147130902362,0.8441695103343967,0.09498600847224,0.0537236934828333,-0.5090481852901082,0.112,2.907,2.295,0.43,1.157,1.378,0.086,-0.345,0.51,0,H,0.7,1
CJ_EEG,1,s01,2,16,2,0,repeat,-0.1055963380116996,0,0,0,0,0,-0.11,-1.0,1,45,1,0.85,1.4312802000004012,-0.7147943419793236,-0.4026147130902362,0.8441695103343967,0.09498600847224,0.0537236934828333,-0.5090481852901082,0.112,2.907,2.295,0.43,1.157,1.378,0.086,-0.345,0.51,0,H,0.75,1
CJ_EEG,1,s01,2,17,0,0,nonrepeat,0.0028019064767495,0,0,0,1,1,0.01,1.0,1,0,1,0.6,3.2622220000002926,-0.091425614616975,-0.1932847781957881,-0.977081688194767,0.8691156516712188,0.1795384679826415,0.2299494002141671,1.214,1.254,0.009,0.734,2.034,0.483,0.086,-0.345,0.51,1,H,,1
CJ_EEG,1,s01,2,17,1,1,nonrepeat,0.0028019064767495,0,0,1,1,1,0.01,1.0,1,45,1,0.8,1.1282866000001377,-0.091425614616975,-0.1932847781957881,-0.977081688194767,0.8691156516712188,0.1795384679826415,0.2299494002141671,1.214,1.254,0.009,0.734,2.034,0.483,0.086,-0.345,0.51,0,H,0.6,1
CJ_EEG,1,s01,2,17,2,1,nonrepeat,0.0028019064767495,0,1,1,1,1,0.01,1.0,1,0,1,0.9,1.3545328999998674,-0.091425614616975,-0.1932847781957881,-0.9770816881947674,0.8691156516712188,0.1795384679826415,0.2299494002141675,2.7847963267948965,2.824796326794897,1.5797963267948965,2.3047963267948965,0.4632036732051032,2.0537963267948967,0.086,-0.345,0.51,0,H,0.8,1
CJ_EEG,1,s01,2,18,0,1,repeat,-0.0346328950951287,1,1,1,0,1,-0.01,1.0,1,0,0,0.65,1.1752661000000444,0.2630536283772815,0.0231659444091894,-0.5569126384321634,-0.5996841333952776,0.9241008925238032,-0.2615210640536056,0.496,1.169,0.174,1.728,2.386,0.29,0.086,-0.345,0.51,0,H,,1
CJ_EEG,1,s01,2,18,1,0,repeat,-0.0346328950951287,1,1,1,0,1,-0.01,1.0,0,45,0,0.7,1.9850219999998444,0.2630536283772815,0.0231659444091894,-0.5569126384321634,-0.5996841333952776,0.9241008925238032,-0.2615210640536056,0.496,1.169,0.174,1.728,2.386,0.29,0.086,-0.345,0.51,0,H,0.65,0
CJ_EEG,1,s01,2,18,2,0,repeat,-0.0346328950951287,1,1,1,0,1,-0.01,1.0,0,0,0,0.9,1.1892391000001226,0.2630536283772815,0.0231659444091894,-0.5569126384321634,-0.5996841333952776,0.9241008925238032,-0.2615210640536056,0.496,1.169,0.174,1.728,2.386,0.29,0.086,-0.345,0.51,0,H,0.7,0
CJ_EEG,1,s01,2,19,0,0,nonrepeat,-0.1118760941423954,1,1,1,0,1,-0.11,1.0,0,0,0,0.2,1.103718399999707,-0.6989968178846202,0.0633909602828329,-0.0781745696117421,0.297667036514103,-0.2054985240852584,-0.0496446500696874,1.689,2.724,0.362,2.632,0.312,1.944,0.086,-0.345,0.51,0,H,,0
CJ_EEG,1,s01,2,19,1,0,nonrepeat,-0.1118760941423954,1,1,1,0,1,-0.11,1.0,0,0,0,0.05,4.023467500000152,-0.6989968178846202,0.0633909602828329,-0.0781745696117421,0.297667036514103,-0.2054985240852584,-0.0496446500696874,1.689,2.724,0.362,2.632,0.312,1.944,0.086,-0.345,0.51,0,L,0.2,0
CJ_EEG,1,s01,2,19,2,0,nonrepeat,-0.1118760941423951,1,1,1,0,0,-0.11,-1.0,0,45,1,0.15,4.014808900000389,-0.6989968178846202,0.0633909602828329,-0.0781745696117419,0.2976670365141042,-0.2054985240852582,-0.0496446500696874,0.1182036732051035,1.1532036732051036,1.9327963267948969,1.0612036732051031,1.8827963267948968,0.3732036732051034,0.086,-0.345,0.51,1,H,0.05,0
CJ_EEG,1,s01,2,20,0,0,repeat,-0.2043903729431609,1,1,0,0,0,-0.21,-1.0,1,0,1,-0.15,1.3693880000000718,-0.0751094409643906,-0.1285855018432673,-0.9495890677684746,0.9938931270552648,-0.3042925590167196,-0.7626587951213786,1.934,1.913,1.551,0.783,1.844,1.664,0.086,-0.345,0.51,0,L,,1
CJ_EEG,1,s01,2,20,1,0,repeat,-0.2043903729431609,1,0,0,0,0,-0.21,-1.0,1,45,1,0.1,1.4554244999999355,-0.0751094409643906,-0.1285855018432673,-0.9495890677684746,0.9938931270552648,-0.3042925590167196,-0.7626587951213786,1.934,1.913,1.551,0.783,1.844,1.664,0.086,-0.345,0.51,0,L,-0.15,1
CJ_EEG,1,s01,2,20,2,0,repeat,-0.2043903729431609,0,0,0,0,0,-0.21,-1.0,1,45,1,0.35,1.6187706999999136,-0.0751094409643906,-0.1285855018432673,-0.9495890677684746,0.9938931270552648,-0.3042925590167196,-0.7626587951213786,1.934,1.913,1.551,0.783,1.844,1.664,0.086,-0.345,0.51,0,H,0.1,1
CJ_EEG,1,s01,2,21,0,0,nonrepeat,0.2339264124676878,0,0,0,1,1,0.21,1.0,1,45,1,0.15,1.5840792999997575,-0.0562935569222716,-0.0282822869380977,0.1122927125406511,0.9444727252395656,0.9373519375290362,-0.5059830566427568,2.771,2.76,1.134,2.378,0.81,0.194,0.086,-0.345,0.51,1,H,,1
CJ_EEG,1,s01,2,21,1,1,nonrepeat,0.2339264124676878,0,0,1,1,1,0.21,1.0,1,0,1,0.3,1.2403267999998209,-0.0562935569222716,-0.0282822869380977,0.1122927125406511,0.9444727252395656,0.9373519375290362,-0.5059830566427568,2.771,2.76,1.134,2.378,0.81,0.194,0.086,-0.345,0.51,0,H,0.15,1
CJ_EEG,1,s01,2,21,2,1,nonrepeat,0.2339264124676877,0,1,1,1,1,0.21,1.0,1,45,1,0.5,1.0409048000001349,-0.0562935569222716,-0.0282822869380977,0.1122927125406511,0.9444727252395656,0.9373519375290362,-0.505983056642757,1.2002036732051031,1.1892036732051032,2.7047963267948965,0.8072036732051036,2.3807963267948966,1.7647963267948965,0.086,-0.345,0.51,0,H,0.3,1
CJ_EEG,1,s01,3,0,0,1,repeat,-0.0899794918862796,1,1,1,0,0,-0.11,-1.0,1,0,1,-0.15,3.750173100000211,0.9979487861184424,-0.4901855325480538,-0.7209245992740269,-0.4647207416533505,0.1535550275300574,-0.0155498914907464,2.357,1.771,3.032,1.781,0.453,2.755,0.086,-0.345,0.51,1,L,,1
CJ_EEG,1,s01,3,0,1,0,repeat,-0.0899794918862796,1,1,0,0,0,-0.11,-1.0,1,45,1,0.1,1.287645200000043,0.9979487861184424,-0.4901855325480538,-0.7209245992740269,-0.4647207416533505,0.1535550275300574,-0.0155498914907464,2.357,1.771,3.032,1.781,0.453,2.755,0.086,-0.345,0.51,0,L,-0.15,1
CJ_EEG,1,s01,3,0,2,0,repeat,-0.0899794918862796,1,0,0,0,1,-0.11,1.0,1,0,0,0.2,1.3997967999994216,0.9979487861184424,-0.4901855325480538,-0.7209245992740269,-0.4647207416533505,0.1535550275300574,-0.0155498914907464,2.357,1.771,3.032,1.781,0.453,2.755,0.086,-0.345,0.51,1,H,0.1,1
CJ_EEG,1,s01,3,1,0,0,nonrepeat,0.1245142532134439,0,0,1,1,1,0.11,1.0,0,45,1,0.4,3.82805929999995,0.117904320277473,0.4204166823665605,-0.7911887146634333,0.5293966336559032,0.7356614399029995,-0.265104842258839,0.439,1.013,0.082,2.541,2.46,2.853,0.086,-0.345,0.51,0,H,,0
CJ_EEG,1,s01,3,1,1,1,nonrepeat,0.1245142532134439,0,1,1,1,1,0.11,1.0,1,0,1,0.45,1.4084953000001406,0.117904320277473,0.4204166823665605,-0.7911887146634333,0.5293966336559032,0.7356614399029995,-0.265104842258839,0.439,1.013,0.082,2.541,2.46,2.853,0.086,-0.345,0.51,0,H,0.4,1
CJ_EEG,1,s01,3,1,2,1,nonrepeat,0.1245142532134439,1,1,1,1,1,0.11,1.0,1,45,1,0.65,1.2698042000001806,0.117904320277473,0.4204166823665605,-0.7911887146634331,0.5293966336559021,0.7356614399029995,-0.2651048422588379,2.0097963267948966,2.5837963267948965,1.6527963267948966,0.9702036732051038,0.8892036732051034,1.2822036732051032,0.086,-0.345,0.51,0,H,0.45,1
CJ_EEG,1,s01,3,2,0,1,repeat,-0.006967391482876,1,1,1,1,1,0.01,1.0,1,45,1,0.55,1.257592900000418,-0.014512592374984,0.9353241079974476,-0.3409805653850671,-0.7845865765107848,-0.1836175113957886,0.3465687887719207,0.387,0.76,1.312,3.057,2.821,1.042,0.086,-0.345,0.51,0,H,,1
CJ_EEG,1,s01,3,2,1,1,repeat,-0.006967391482876,1,1,1,1,1,0.01,1.0,1,45,1,0.65,1.1102948999996445,-0.014512592374984,0.9353241079974476,-0.3409805653850671,-0.7845865765107848,-0.1836175113957886,0.3465687887719207,0.387,0.76,1.312,3.057,2.821,1.042,0.086,-0.345,0.51,0,H,0.55,1
CJ_EEG,1,s01,3,2,2,1,repeat,-0.006967391482876,1,1,1,1,1,0.01,1.0,1,0,1,0.8,1.3087691000000632,-0.014512592374984,0.9353241079974476,-0.3409805653850671,-0.7845865765107848,-0.1836175113957886,0.3465687887719207,0.387,0.76,1.312,3.057,2.821,1.042,0.086,-0.345,0.51,0,H,0.65,1
CJ_EEG,1,s01,3,3,0,1,nonrepeat,-0.0084057194302488,1,1,1,1,0,0.01,-1.0,1,45,0,0.35,1.5359419999995223,-0.4229865458059988,-0.4907041821059349,0.7285406521924697,0.7387265685503509,-0.7957630232844926,0.1917522138721124,2.915,0.2,0.892,0.888,1.651,0.468,0.086,-0.345,0.51,1,H,,1
CJ_EEG,1,s01,3,3,1,1,nonrepeat,-0.0084057194302488,1,1,0,1,0,0.01,-1.0,0,0,0,0.1,6.139693300000545,-0.4229865458059988,-0.4907041821059349,0.7285406521924697,0.7387265685503509,-0.7957630232844926,0.1917522138721124,2.915,0.2,0.892,0.888,1.651,0.468,0.086,-0.345,0.51,0,L,0.35,0
CJ_EEG,1,s01,3,3,2,1,nonrepeat,-0.0084057194302489,1,0,0,1,0,0.01,-1.0,0,45,0,0.35,1.204279999999926,-0.4229865458059988,-0.490704182105935,0.7285406521924699,0.7387265685503512,-0.7957630232844932,0.1917522138721121,1.3442036732051037,1.7707963267948963,2.4627963267948965,2.4587963267948965,0.0802036732051032,2.0387963267948965,0.086,-0.345,0.51,0,H,0.1,0
CJ_EEG,1,s01,3,4,0,1,nonrepeat,-0.1244434011871091,0,0,0,0,0,-0.11,-1.0,0,45,1,0.1,1.1037010999998529,-0.7147943419793236,-0.9012059650685388,-0.7463893901687296,0.8436508607765156,-0.1225020132485007,0.8945804425659221,0.112,1.532,3.042,0.724,2.797,0.744,0.086,-0.345,0.51,0,L,,0
CJ_EEG,1,s01,3,4,1,0,nonrepeat,-0.1244434011871091,0,0,0,0,0,-0.11,-1.0,1,0,1,0.45,0.9329195999998774,-0.7147943419793236,-0.9012059650685388,-0.7463893901687296,0.8436508607765156,-0.1225020132485007,0.8945804425659221,0.112,1.532,3.042,0.724,2.797,0.744,0.086,-0.345,0.51,0,H,0.1,1
CJ_EEG,1,s01,3,4,2,0,nonrepeat,-0.1244434011871092,0,0,0,0,0,-0.11,-1.0,1,0,1,0.6,1.267895299999509,-0.7147943419793232,-0.9012059650685388,-0.7463893901687296,0.8436508607765161,-0.1225020132485018,0.8945804425659216,1.6827963267948969,3.1027963267948966,1.4712036732051033,2.2947963267948968,1.226203673205104,2.3147963267948963,0.086,-0.345,0.51,0,H,0.45,1
CJ_EEG,1,s01,3,5,0,0,repeat,-0.0856411236941927,0,0,0,0,1,-0.11,1.0,1,0,0,0.2,1.600425499999801,0.3241691265245692,-0.9485517686527124,0.916980104813274,-0.6939038597056795,-1.0,0.8874596548553921,0.52,1.591,0.818,1.691,-0.0,2.312,0.086,-0.345,0.51,1,H,,1
CJ_EEG,1,s01,3,5,1,0,repeat,-0.0856411236941927,0,0,1,0,1,-0.11,1.0,0,45,0,0.15,1.7170358000003034,0.3241691265245692,-0.9485517686527124,0.916980104813274,-0.6939038597056795,-1.0,0.8874596548553921,0.52,1.591,0.818,1.691,-0.0,2.312,0.086,-0.345,0.51,0,H,0.2,0
CJ_EEG,1,s01,3,5,2,0,repeat,-0.0856411236941927,0,1,1,0,1,-0.11,1.0,0,45,0,0.2,0.8866671999994651,0.3241691265245692,-0.9485517686527124,0.916980104813274,-0.6939038597056795,-1.0,0.8874596548553921,0.52,1.591,0.818,1.691,-0.0,2.312,0.086,-0.345,0.51,0,H,0.15,0
CJ_EEG,1,s01,3,6,0,0,repeat,0.2152600272615614,1,1,1,1,1,0.21,1.0,0,0,1,0.45,1.3516683000007106,0.5075156209664327,-0.1479668041432034,0.8563832562238671,0.6526649290662412,-0.4468953880270579,-0.1301414505169108,0.592,2.807,0.729,0.649,1.788,2.8,0.086,-0.345,0.51,0,H,,0
CJ_EEG,1,s01,3,6,1,1,repeat,0.2152600272615614,1,1,1,1,1,0.21,1.0,1,45,1,0.65,2.7049760000008973,0.5075156209664327,-0.1479668041432034,0.8563832562238671,0.6526649290662412,-0.4468953880270579,-0.1301414505169108,0.592,2.807,0.729,0.649,1.788,2.8,0.086,-0.345,0.51,0,H,0.45,1
CJ_EEG,1,s01,3,6,2,1,repeat,0.2152600272615614,1,1,1,1,1,0.21,1.0,1,0,1,0.6,2.6351375000003827,0.5075156209664327,-0.1479668041432034,0.8563832562238671,0.6526649290662412,-0.4468953880270579,-0.1301414505169108,0.592,2.807,0.729,0.649,1.788,2.8,0.086,-0.345,0.51,0,H,0.65,1
CJ_EEG,1,s01,3,7,0,1,nonrepeat,0.2165332668062966,1,1,1,1,0,0.21,-1.0,1,45,0,0.45,1.972703100000217,0.3949518914718573,0.7891375007818761,0.3985356696770903,-0.6541974933899172,0.6343209258820676,-0.2635488935851944,1.023,2.439,2.12,1.435,0.929,1.86,0.086,-0.345,0.51,1,H,,1
CJ_EEG,1,s01,3,7,1,1,nonrepeat,0.2165332668062966,1,1,0,1,1,0.21,1.0,0,45,1,0.15,0.9532092999997984,0.3949518914718573,0.7891375007818761,0.3985356696770903,-0.6541974933899172,0.6343209258820676,-0.2635488935851944,1.023,2.439,2.12,1.435,0.929,1.86,0.086,-0.345,0.51,1,H,0.45,0
CJ_EEG,1,s01,3,7,2,1,nonrepeat,0.2165332668062967,1,0,1,1,1,0.21,1.0,1,45,1,0.4,1.0467834000000948,0.3949518914718578,0.7891375007818761,0.3985356696770903,-0.6541974933899172,0.6343209258820669,-0.2635488935851938,2.593796326794896,0.8682036732051035,0.5492036732051035,3.0057963267948966,2.499796326794897,0.2892036732051037,0.086,-0.345,0.51,0,H,0.15,1
CJ_EEG,1,s01,3,8,0,1,nonrepeat,-0.3196734647131674,0,1,1,0,0,-0.31,-1.0,1,45,1,-0.1,1.793342400000256,-0.327729520379834,0.2849346410667517,0.1000789666511805,-0.6460394065636248,-0.6725414965740903,-0.6567439724793872,0.264,2.637,0.432,0.139,3.013,1.436,0.086,-0.345,0.51,1,L,,1
CJ_EEG,1,s01,3,8,1,0,nonrepeat,-0.3196734647131674,1,1,0,0,0,-0.31,-1.0,1,0,1,0.25,0.995488600000499,-0.327729520379834,0.2849346410667517,0.1000789666511805,-0.6460394065636248,-0.6725414965740903,-0.6567439724793872,0.264,2.637,0.432,0.139,3.013,1.436,0.086,-0.345,0.51,0,H,-0.1,1
CJ_EEG,1,s01,3,8,2,0,nonrepeat,-0.3196734647131675,1,0,0,0,0,-0.31,-1.0,1,0,1,0.7,0.7070839999996679,-0.327729520379834,0.2849346410667506,0.1000789666511805,-0.6460394065636248,-0.6725414965740903,-0.6567439724793872,1.8347963267948968,1.066203673205104,2.0027963267948965,1.7097963267948966,1.4422036732051031,3.0067963267948965,0.086,-0.345,0.51,0,H,0.25,1
CJ_EEG,1,s01,3,9,0,0,repeat,0.3248450697017654,0,0,0,1,1,0.31,1.0,1,45,1,0.45,0.8192347000003792,0.808000153523931,0.7876283208081685,0.4056564573876198,0.1886870852247604,-0.4835833943954055,0.2426817956615188,0.71,0.702,0.552,1.104,1.368,0.488,0.086,-0.345,0.51,1,H,,1
CJ_EEG,1,s01,3,9,1,1,repeat,0.3248450697017654,0,0,1,1,1,0.31,1.0,1,45,1,0.75,0.8416779999997743,0.808000153523931,0.7876283208081685,0.4056564573876198,0.1886870852247604,-0.4835833943954055,0.2426817956615188,0.71,0.702,0.552,1.104,1.368,0.488,0.086,-0.345,0.51,0,H,0.45,1
CJ_EEG,1,s01,3,9,2,1,repeat,0.3248450697017654,0,1,1,1,1,0.31,1.0,1,45,1,0.85,1.190752600000451,0.808000153523931,0.7876283208081685,0.4056564573876198,0.1886870852247604,-0.4835833943954055,0.2426817956615188,0.71,0.702,0.552,1.104,1.368,0.488,0.086,-0.345,0.51,0,H,0.75,1
CJ_EEG,1,s01,3,10,0,1,nonrepeat,0.2184902443115507,1,1,1,1,1,0.21,1.0,1,45,1,0.5,1.9923524000005275,-0.3638988771902998,-0.6378813197373323,0.9811607316079132,0.7728680958292276,0.970974815250032,-0.4122819798902363,1.321,1.713,0.778,2.267,0.774,1.34,0.086,-0.345,0.51,0,H,,1
CJ_EEG,1,s01,3,10,1,1,nonrepeat,0.2184902443115507,1,1,1,1,1,0.21,1.0,1,0,1,0.6,1.2113518999994994,-0.3638988771902998,-0.6378813197373323,0.9811607316079132,0.7728680958292276,0.970974815250032,-0.4122819798902363,1.321,1.713,0.778,2.267,0.774,1.34,0.086,-0.345,0.51,0,H,0.5,1
CJ_EEG,1,s01,3,10,2,1,nonrepeat,0.2184902443115508,1,1,1,1,1,0.21,1.0,1,45,1,0.5,1.1365459999997256,-0.3638988771902993,-0.6378813197373323,0.9811607316079132,0.7728680958292276,0.970974815250032,-0.4122819798902358,2.8917963267948963,0.1422036732051035,2.3487963267948966,0.6962036732051033,2.3447963267948966,2.9107963267948964,0.086,-0.345,0.51,0,H,0.6,1
CJ_EEG,1,s01,3,11,0,1,repeat,0.2239998208887469,1,1,1,1,1,0.21,1.0,1,0,1,0.3,1.1759898000000248,0.275786023824633,-0.1530597623221446,0.0486307353038927,0.8069628544081686,0.5681124695558393,-0.202433395437907,0.501,2.809,1.159,2.432,0.955,1.884,0.086,-0.345,0.51,0,H,,1
CJ_EEG,1,s01,3,11,1,1,repeat,0.2239998208887469,1,1,1,1,1,0.21,1.0,1,0,1,0.55,1.316276599999583,0.275786023824633,-0.1530597623221446,0.0486307353038927,0.8069628544081686,0.5681124695558393,-0.202433395437907,0.501,2.809,1.159,2.432,0.955,1.884,0.086,-0.345,0.51,0,H,0.3,1
CJ_EEG,1,s01,3,11,2,1,repeat,0.2239998208887469,1,1,1,1,1,0.21,1.0,1,45,1,0.4,1.2800055999996405,0.275786023824633,-0.1530597623221446,0.0486307353038927,0.8069628544081686,0.5681124695558393,-0.202433395437907,0.501,2.809,1.159,2.432,0.955,1.884,0.086,-0.345,0.51,0,H,0.55,1
CJ_EEG,1,s01,3,12,0,1,nonrepeat,0.114846986413444,1,1,1,1,1,0.11,1.0,1,0,1,0.05,2.006124700000328,0.5044504923190811,-0.2997182503956604,0.9918652975236764,-0.5136224939111678,-0.8319323800949585,0.8380392530396937,0.98,0.275,2.353,0.191,0.066,0.849,0.086,-0.345,0.51,0,L,,1
CJ_EEG,1,s01,3,12,1,1,nonrepeat,0.114846986413444,1,1,1,1,0,0.11,-1.0,1,0,0,0.05,3.9050062999995134,0.5044504923190811,-0.2997182503956604,0.9918652975236764,-0.5136224939111678,-0.8319323800949585,0.8380392530396937,0.98,0.275,2.353,0.191,0.066,0.849,0.086,-0.345,0.51,1,L,0.05,1
CJ_EEG,1,s01,3,12,2,1,nonrepeat,0.1148469864134439,1,1,0,1,0,0.11,-1.0,0,45,0,-0.15,3.523555199999464,0.5044504923190811,-0.2997182503956607,0.9918652975236764,-0.5136224939111678,-0.8319323800949584,0.8380392530396932,2.5507963267948965,1.8457963267948965,0.7822036732051036,1.7617963267948966,1.6367963267948966,2.4197963267948968,0.086,-0.345,0.51,0,L,0.05,0
CJ_EEG,1,s01,3,13,0,1,repeat,-0.0966914559818762,1,0,0,0,0,-0.11,-1.0,0,0,1,0.25,0.7736840999996275,-0.4229865458059988,0.8146022916765798,-0.331313298585067,-0.7402591328740269,0.2650814579088703,-0.1652735082116148,2.915,2.429,2.879,0.102,1.074,1.243,0.086,-0.345,0.51,0,H,,0
CJ_EEG,1,s01,3,13,1,0,repeat,-0.0966914559818762,0,0,0,0,0,-0.11,-1.0,1,0,1,0.1,0.8727602000008119,-0.4229865458059988,0.8146022916765798,-0.331313298585067,-0.7402591328740269,0.2650814579088703,-0.1652735082116148,2.915,2.429,2.879,0.102,1.074,1.243,0.086,-0.345,0.51,0,L,0.25,1
CJ_EEG,1,s01,3,13,2,0,repeat,-0.0966914559818762,0,0,0,0,0,-0.11,-1.0,1,45,1,0.4,0.9858426000000692,-0.4229865458059988,0.8146022916765798,-0.331313298585067,-0.7402591328740269,0.2650814579088703,-0.1652735082116148,2.915,2.429,2.879,0.102,1.074,1.243,0.086,-0.345,0.51,0,H,0.1,1
CJ_EEG,1,s01,3,14,0,0,nonrepeat,-0.0021337580828759,0,0,0,1,1,0.01,1.0,1,0,1,-0.2,1.2096301999999923,-0.4382654203428202,0.0358983398565413,-0.402096063532355,-0.3364062567640071,0.720382565366177,0.4076842869192086,2.921,1.164,1.336,2.881,2.466,1.018,0.086,-0.345,0.51,1,L,,1
CJ_EEG,1,s01,3,14,1,1,nonrepeat,-0.0021337580828759,0,0,1,1,1,0.01,1.0,1,0,1,0.1,1.112685600000077,-0.4382654203428202,0.0358983398565413,-0.402096063532355,-0.3364062567640071,0.720382565366177,0.4076842869192086,2.921,1.164,1.336,2.881,2.466,1.018,0.086,-0.345,0.51,0,L,-0.2,1
CJ_EEG,1,s01,3,14,2,1,nonrepeat,-0.0021337580828758,0,1,1,1,1,0.01,1.0,1,45,1,0.05,1.0060555999998542,-0.4382654203428191,0.0358983398565419,-0.4020960635323556,-0.3364062567640082,0.720382565366177,0.4076842869192092,1.3502036732051028,2.7347963267948963,2.906796326794897,1.3102036732051037,0.8952036732051036,2.5887963267948964,0.086,-0.345,0.51,0,L,0.1,1
CJ_EEG,1,s01,3,15,0,1,repeat,-0.0222384712363753,1,1,1,0,1,-0.01,1.0,1,45,0,0.15,0.8071886999996423,0.4927553959874922,-0.1398087173169115,-0.6796622842846205,-0.3537129608324185,0.2508398824878106,0.2961578565403957,2.157,1.233,1.445,1.317,2.062,0.509,0.086,-0.345,0.51,0,H,,1
CJ_EEG,1,s01,3,15,1,0,repeat,-0.0222384712363753,1,1,1,0,1,-0.01,1.0,0,0,0,0.15,1.346432199999981,0.4927553959874922,-0.1398087173169115,-0.6796622842846205,-0.3537129608324185,0.2508398824878106,0.2961578565403957,2.157,1.233,1.445,1.317,2.062,0.509,0.086,-0.345,0.51,0,H,0.15,0
CJ_EEG,1,s01,3,16,0,0,nonrepeat,-0.1280902366353541,1,1,1,0,0,-0.11,-1.0,0,0,1,-0.15,0.920407300000079,-0.279346417679898,-0.4061517225955328,0.5019040132296108,0.4820508300717292,-0.3435270444745372,-0.723471078363497,0.283,1.804,0.981,0.582,1.313,3.033,0.086,-0.345,0.51,1,L,,0
CJ_EEG,1,s01,3,16,1,0,nonrepeat,-0.1280902366353541,1,1,0,0,0,-0.11,-1.0,1,0,1,0.1,0.8848850999993374,-0.279346417679898,-0.4061517225955328,0.5019040132296108,0.4820508300717292,-0.3435270444745372,-0.723471078363497,0.283,1.804,0.981,0.582,1.313,3.033,0.086,-0.345,0.51,0,L,-0.15,1
CJ_EEG,1,s01,3,16,2,0,nonrepeat,-0.1280902366353537,1,0,0,0,0,-0.11,-1.0,1,45,1,0.2,1.0942893000001277,-0.2793464176798981,-0.4061517225955321,0.5019040132296111,0.482050830071729,-0.3435270444745366,-0.7234710783634958,1.8537963267948965,0.2332036732051037,2.5517963267948964,2.1527963267948964,2.8837963267948963,1.462203673205103,0.086,-0.345,0.51,0,H,0.1,1
CJ_EEG,1,s01,3,17,0,0,repeat,0.113408658466071,0,0,0,1,0,0.11,-1.0,1,45,0,0.25,1.300737599999593,0.1199321498090618,0.464225476445437,0.456586039177026,0.4316398978402043,-0.0827488782328014,-0.7091827342425014,1.131,0.575,0.572,2.133,1.931,1.685,0.086,-0.345,0.51,0,H,,1
CJ_EEG,1,s01,3,17,1,1,repeat,0.113408658466071,0,0,0,1,0,0.11,-1.0,0,0,0,0.45,1.465062599999328,0.1199321498090618,0.464225476445437,0.456586039177026,0.4316398978402043,-0.0827488782328014,-0.7091827342425014,1.131,0.575,0.572,2.133,1.931,1.685,0.086,-0.345,0.51,0,H,0.25,0
CJ_EEG,1,s01,3,17,2,1,repeat,0.113408658466071,0,0,0,1,0,0.11,-1.0,0,0,0,0.45,1.3868732999999338,0.1199321498090618,0.464225476445437,0.456586039177026,0.4316398978402043,-0.0827488782328014,-0.7091827342425014,1.131,0.575,0.572,2.133,1.931,1.685,0.086,-0.345,0.51,0,H,0.45,0
CJ_EEG,1,s01,3,18,0,1,nonrepeat,-0.2325823208966178,0,0,0,0,1,-0.21,1.0,0,45,0,0.5,0.7674980000001597,0.4733740936875554,-0.9129010614001276,0.0078870698723674,-0.4367094716691766,-0.7713355315055522,0.2441909756352264,2.563,1.605,1.175,1.792,1.481,2.653,0.086,-0.345,0.51,1,H,,0
CJ_EEG,1,s01,3,18,1,0,nonrepeat,-0.2325823208966178,0,0,1,0,1,-0.21,1.0,0,45,0,0.45,1.2120424999993702,0.4733740936875554,-0.9129010614001276,0.0078870698723674,-0.4367094716691766,-0.7713355315055522,0.2441909756352264,2.563,1.605,1.175,1.792,1.481,2.653,0.086,-0.345,0.51,0,H,0.5,0
CJ_EEG,1,s01,3,18,2,0,nonrepeat,-0.2325823208966181,0,1,1,0,0,-0.21,-1.0,0,0,1,0.75,1.086577600000055,0.4733740936875543,-0.9129010614001276,0.007887069872368,-0.4367094716691772,-0.7713355315055517,0.2441909756352253,0.992203673205104,0.0342036732051034,2.7457963267948964,0.2212036732051032,3.0517963267948964,1.082203673205104,0.086,-0.345,0.51,1,H,0.45,0
CJ_EEG,1,s01,3,19,0,0,repeat,0.3249315112947457,1,1,0,1,1,0.31,1.0,1,0,1,0.6,1.2812663999993674,0.4112680651244416,0.5997075177452453,-0.2895323340377791,0.3730708787823864,0.6745459417557116,0.1805289983984685,2.125,2.199,0.279,2.11,2.484,2.678,0.086,-0.345,0.51,1,H,,1
CJ_EEG,1,s01,3,19,1,1,repeat,0.3249315112947457,1,0,1,1,1,0.31,1.0,1,0,1,0.8,0.857427099999768,0.4112680651244416,0.5997075177452453,-0.2895323340377791,0.3730708787823864,0.6745459417557116,0.1805289983984685,2.125,2.199,0.279,2.11,2.484,2.678,0.086,-0.345,0.51,0,H,0.6,1
CJ_EEG,1,s01,3,19,2,1,repeat,0.3249315112947457,0,1,1,1,1,0.31,1.0,1,45,1,0.85,1.0346663999998782,0.4112680651244416,0.5997075177452453,-0.2895323340377791,0.3730708787823864,0.6745459417557116,0.1805289983984685,2.125,2.199,0.279,2.11,2.484,2.678,0.086,-0.345,0.51,0,H,0.8,1
CJ_EEG,1,s01,3,20,0,1,repeat,-0.2858932933728568,1,1,1,0,0,-0.31,-1.0,1,0,1,0.45,0.7047575000005963,-0.6699950174846203,-0.612416528842629,-0.2360562731589024,0.099041667535418,0.3689684510192722,-0.6649020593056791,3.012,1.723,0.3,2.71,2.604,3.01,0.086,-0.345,0.51,1,H,,1
CJ_EEG,1,s01,3,20,1,0,repeat,-0.2858932933728568,1,1,0,0,0,-0.31,-1.0,1,0,1,0.75,0.7041836999997031,-0.6699950174846203,-0.612416528842629,-0.2360562731589024,0.099041667535418,0.3689684510192722,-0.6649020593056791,3.012,1.723,0.3,2.71,2.604,3.01,0.086,-0.345,0.51,0,H,0.45,1
CJ_EEG,1,s01,3,20,2,0,repeat,-0.2858932933728568,1,0,0,0,0,-0.31,-1.0,1,0,1,0.5,0.8810572000002139,-0.6699950174846203,-0.612416528842629,-0.2360562731589024,0.099041667535418,0.3689684510192722,-0.6649020593056791,3.012,1.723,0.3,2.71,2.604,3.01,0.086,-0.345,0.51,0,H,0.75,1
CJ_EEG,1,s01,3,21,0,0,nonrepeat,0.2027791618098275,0,0,0,1,1,0.21,1.0,1,0,1,0.85,0.9748122000000876,0.4530022609717927,-0.073600260990683,0.7341522599292918,-0.1362249391116785,0.8909966643606891,-0.6516510143004466,2.571,1.207,0.681,1.91,2.399,1.434,0.086,-0.345,0.51,1,H,,1
CJ_EEG,1,s01,3,21,1,1,nonrepeat,0.2027791618098275,0,0,1,1,1,0.21,1.0,1,0,1,0.75,1.2445926999998846,0.4530022609717927,-0.073600260990683,0.7341522599292918,-0.1362249391116785,0.8909966643606891,-0.6516510143004466,2.571,1.207,0.681,1.91,2.399,1.434,0.086,-0.345,0.51,0,H,0.85,1
CJ_EEG,1,s01,3,21,2,1,nonrepeat,0.2027791618098278,0,1,1,1,1,0.21,1.0,1,45,1,0.9,1.3260986000004775,0.4530022609717939,-0.0736002609906824,0.7341522599292918,-0.136224939111678,0.8909966643606891,-0.6516510143004471,1.0002036732051032,2.7777963267948964,2.2517963267948966,0.3392036732051036,0.8282036732051035,3.0047963267948967,0.086,-0.345,0.51,0,H,0.75,1
CJ_EEG,3,S03,0,0,1,1,nonrepeat,0.2248564420352266,1,1,1,1,1,0.2,1.0,1,45,1,-0.05,2.0040022000002864,-0.648585885653095,-0.3450362244482449,0.9602702493342692,0.224337792477345,0.5818821641189538,0.5762705563821315,0.138,1.828,0.801,1.09,2.192,0.619,0.556,0.128,0.961,0,L,-0.25,1
CJ_EEG,3,S03,0,0,2,1,nonrepeat,0.2248564420352266,1,1,1,1,1,0.2,1.0,1,0,1,1.0,1.7796527999998943,-0.6485858856530953,-0.3450362244482443,0.9602702493342689,0.2243377924773456,0.5818821641189538,0.5762705563821309,1.7087963267948965,0.2572036732051037,2.3717963267948967,2.6607963267948964,0.6212036732051036,2.1897963267948963,0.556,0.128,0.961,0,H,-0.05,1
CJ_EEG,3,S03,0,1,0,1,repeat,0.1011793230099552,1,1,1,1,0,0.1,-1.0,1,0,0,0.25,1.740528300000733,-0.4474140375849393,0.9587610693605612,0.0695212175775366,-0.3160344240482456,0.3114367310772177,0.0308053816776006,0.217,2.34,0.42,2.873,0.515,1.166,0.556,0.128,0.961,1,H,,1
CJ_EEG,3,S03,0,1,1,1,repeat,0.1011793230099552,1,1,0,1,0,0.1,-1.0,0,45,0,-0.45,2.9120098000003054,-0.4474140375849393,0.9587610693605612,0.0695212175775366,-0.3160344240482456,0.3114367310772177,0.0308053816776006,0.217,2.34,0.42,2.873,0.515,1.166,0.556,0.128,0.961,0,L,0.25,0
CJ_EEG,3,S03,0,1,2,1,repeat,0.1011793230099552,1,0,0,1,1,0.1,1.0,0,0,1,0.1,1.0999571000002106,-0.4474140375849393,0.9587610693605612,0.0695212175775366,-0.3160344240482456,0.3114367310772177,0.0308053816776006,0.217,2.34,0.42,2.873,0.515,1.166,0.556,0.128,0.961,1,L,-0.45,0
CJ_EEG,3,S03,0,2,0,1,repeat,-0.2103321574852585,0,0,1,0,0,-0.2,-1.0,1,45,1,0.75,1.9575434999997012,-0.5844052588584556,0.0160451566986599,-0.3832334107903,0.457104688734907,0.0109521985197191,-0.7784563192160817,1.734,0.399,1.813,2.143,0.397,0.087,0.556,0.128,0.961,1,H,,1
CJ_EEG,3,S03,0,2,1,0,repeat,-0.2103321574852585,0,1,0,0,0,-0.2,-1.0,1,45,1,-0.05,0.9746246999993672,-0.5844052588584556,0.0160451566986599,-0.3832334107903,0.457104688734907,0.0109521985197191,-0.7784563192160817,1.734,0.399,1.813,2.143,0.397,0.087,0.556,0.128,0.961,0,L,0.75,1
CJ_EEG,3,S03,0,2,2,0,repeat,-0.2103321574852585,1,0,0,0,0,-0.2,-1.0,1,0,1,-0.35,3.355959100000291,-0.5844052588584556,0.0160451566986599,-0.3832334107903,0.457104688734907,0.0109521985197191,-0.7784563192160817,1.734,0.399,1.813,2.143,0.397,0.087,0.556,0.128,0.961,0,L,-0.05,1
CJ_EEG,3,S03,0,3,0,0,nonrepeat,0.1982834999984257,0,0,0,1,1,0.2,1.0,1,45,1,0.55,1.354372400000102,0.3312899142350988,0.7509403144398208,0.8181860698818122,0.1540736770879387,-0.6114259984268026,-0.253362977227313,1.048,2.454,0.714,2.024,2.989,1.864,0.556,0.128,0.961,1,H,,1
CJ_EEG,3,S03,0,3,1,1,nonrepeat,0.1982834999984257,0,0,1,1,1,0.2,1.0,1,0,1,-0.4,1.0320487999997567,0.3312899142350988,0.7509403144398208,0.8181860698818122,0.1540736770879387,-0.6114259984268026,-0.253362977227313,1.048,2.454,0.714,2.024,2.989,1.864,0.556,0.128,0.961,0,L,0.55,1
CJ_EEG,3,S03,0,3,2,1,nonrepeat,0.1982834999984255,0,1,1,1,0,0.2,-1.0,1,0,0,-0.95,3.240500500000053,0.3312899142350988,0.7509403144398197,0.8181860698818122,0.1540736770879387,-0.6114259984268026,-0.2533629772273136,2.6187963267948966,0.8832036732051041,2.2847963267948965,0.4532036732051034,1.418203673205103,0.2932036732051033,0.556,0.128,0.961,1,L,-0.4,1
CJ_EEG,3,S03,0,4,0,1,nonrepeat,-0.1173070239099339,1,1,0,0,0,-0.1,-1.0,0,45,1,-0.95,1.820784200000162,-0.8706482159948947,-0.0241798591749841,0.5788170354716018,-0.1912569486641987,0.2808789820035737,-0.4774531371007019,1.52,1.954,0.62,2.824,0.503,1.776,0.556,0.128,0.961,0,L,,0
CJ_EEG,3,S03,0,4,1,0,nonrepeat,-0.1173070239099339,1,0,0,0,0,-0.1,-1.0,1,45,1,-0.9,1.7866650000005393,-0.8706482159948947,-0.0241798591749841,0.5788170354716018,-0.1912569486641987,0.2808789820035737,-0.4774531371007019,1.52,1.954,0.62,2.824,0.503,1.776,0.556,0.128,0.961,0,L,-0.95,1
CJ_EEG,3,S03,0,4,2,0,nonrepeat,-0.1173070239099341,0,0,0,0,0,-0.1,-1.0,1,45,1,0.45,1.263483200000337,-0.8706482159948947,-0.0241798591749846,0.578817035471602,-0.1912569486641987,0.280878982003574,-0.4774531371007025,3.090796326794897,0.3832036732051032,2.1907963267948967,1.2532036732051033,2.0737963267948967,0.2052036732051032,0.556,0.128,0.961,0,H,-0.9,1
CJ_EEG,3,S03,0,5,0,0,repeat,-0.0875194543897894,0,0,0,0,1,-0.1,1.0,1,45,0,-0.75,1.6991643999999724,-0.3099041667535417,-0.4250143753375877,0.1397853329669433,0.7361800894608806,-0.4841020439532867,-0.1820615627221444,0.271,1.345,2.694,0.889,2.939,1.892,0.556,0.128,0.961,1,L,,1
CJ_EEG,3,S03,0,5,1,0,repeat,-0.0875194543897894,0,0,1,0,0,-0.1,-1.0,0,45,1,-0.85,1.4480952000003526,-0.3099041667535417,-0.4250143753375877,0.1397853329669433,0.7361800894608806,-0.4841020439532867,-0.1820615627221444,0.271,1.345,2.694,0.889,2.939,1.892,0.556,0.128,0.961,1,L,-0.75,0
CJ_EEG,3,S03,0,5,2,0,repeat,-0.0875194543897894,0,1,0,0,1,-0.1,1.0,1,45,0,-0.7,1.44975549999981,-0.3099041667535417,-0.4250143753375877,0.1397853329669433,0.7361800894608806,-0.4841020439532867,-0.1820615627221444,0.271,1.345,2.694,0.889,2.939,1.892,0.556,0.128,0.961,1,L,-0.85,1
CJ_EEG,3,S03,0,6,0,0,nonrepeat,0.2010893038668368,1,0,1,1,1,0.2,1.0,0,45,1,-0.05,1.5307883999994374,-0.5365408057164007,0.1357296739037652,0.7193920349503511,0.254895541550989,0.0618817803091256,0.5711775982031908,0.182,0.446,2.246,1.078,0.417,0.617,0.556,0.128,0.961,0,L,,0
CJ_EEG,3,S03,0,6,1,1,nonrepeat,0.2010893038668368,0,1,1,1,1,0.2,1.0,1,0,1,-0.85,1.7941798000001654,-0.5365408057164007,0.1357296739037652,0.7193920349503511,0.254895541550989,0.0618817803091256,0.5711775982031908,0.182,0.446,2.246,1.078,0.417,0.617,0.556,0.128,0.961,0,L,-0.05,1
CJ_EEG,3,S03,0,6,2,1,nonrepeat,0.2010893038668368,1,1,1,1,1,0.2,1.0,1,0,1,-0.4,1.8223021000003428,-0.536540805716401,0.1357296739037656,0.7193920349503511,0.2548955415509884,0.0618817803091258,0.5711775982031908,1.7527963267948965,2.0167963267948967,0.6752036732051034,2.648796326794897,1.9877963267948968,2.187796326794897,0.556,0.128,0.961,0,L,-0.85,1
CJ_EEG,3,S03,0,7,0,1,repeat,-0.196593642055435,1,1,1,0,1,-0.2,1.0,1,0,0,-0.7,1.6130208000004131,-0.3053298581324826,-0.5319664970953415,-0.029791466911806,0.1015881466248881,-0.2931161122430118,-0.1209460645748565,1.298,1.387,0.381,2.709,2.864,1.916,0.556,0.128,0.961,0,L,,1
CJ_EEG,3,S03,0,7,1,0,repeat,-0.196593642055435,1,1,1,0,0,-0.2,-1.0,0,0,1,-0.05,1.3063296999998784,-0.3053298581324826,-0.5319664970953415,-0.029791466911806,0.1015881466248881,-0.2931161122430118,-0.1209460645748565,1.298,1.387,0.381,2.709,2.864,1.916,0.556,0.128,0.961,1,L,-0.7,0
CJ_EEG,3,S03,0,7,2,0,repeat,-0.196593642055435,1,1,0,0,0,-0.2,-1.0,1,0,1,-0.8,2.627777399999104,-0.3053298581324826,-0.5319664970953415,-0.029791466911806,0.1015881466248881,-0.2931161122430118,-0.1209460645748565,1.298,1.387,0.381,2.709,2.864,1.916,0.556,0.128,0.961,0,L,-0.05,1
CJ_EEG,3,S03,0,8,1,0,repeat,-0.2958198849517974,0,0,0,0,1,-0.3,1.0,1,0,0,-0.95,1.975897199999963,-0.6786249851688575,-0.4382654203428202,-0.6649020593056791,0.0516958639512443,-0.579312300679515,0.5344895918348432,1.697,2.921,3.01,0.413,1.736,2.539,0.556,0.128,0.961,1,L,-1.0,1
CJ_EEG,3,S03,0,8,2,0,repeat,-0.2958198849517974,0,0,1,0,1,-0.3,1.0,0,0,0,-0.5,1.403163900000436,-0.6786249851688575,-0.4382654203428202,-0.6649020593056791,0.0516958639512443,-0.579312300679515,0.5344895918348432,1.697,2.921,3.01,0.413,1.736,2.539,0.556,0.128,0.961,0,L,-0.95,0
CJ_EEG,3,S03,0,9,0,0,nonrepeat,0.2800223608570943,0,1,1,1,1,0.3,1.0,0,0,1,-0.2,1.5262826999996832,0.6837413276977671,-0.7642147437950222,-0.0190869009960434,0.5574079036400771,0.3414758305929801,0.8808107480028078,2.232,3.049,1.956,2.53,1.044,2.403,0.556,0.128,0.961,0,L,,0
CJ_EEG,3,S03,0,9,1,1,nonrepeat,0.2800223608570943,1,1,1,1,1,0.3,1.0,1,45,1,0.9,0.9453366999996432,0.6837413276977671,-0.7642147437950222,-0.0190869009960434,0.5574079036400771,0.3414758305929801,0.8808107480028078,2.232,3.049,1.956,2.53,1.044,2.403,0.556,0.128,0.961,0,H,-0.2,1
CJ_EEG,3,S03,0,9,2,1,nonrepeat,0.2800223608570947,1,1,1,1,1,0.3,1.0,1,45,1,0.9,1.920093700000507,0.6837413276977671,-0.7642147437950211,-0.0190869009960434,0.5574079036400782,0.3414758305929801,0.8808107480028078,0.6612036732051036,1.478203673205103,0.3852036732051034,0.9592036732051028,2.6147963267948966,0.8322036732051035,0.556,0.128,0.961,0,H,0.9,1
CJ_EEG,3,S03,0,10,0,1,repeat,-0.2012543922694745,1,1,1,0,1,-0.2,1.0,1,45,0,-1.0,1.35482569999931,-0.401058764416592,0.4464001228191447,0.5655659904663689,-0.8013746310213146,-0.4428397289638802,-0.5742193425005744,1.806,0.568,0.956,0.078,1.352,1.738,0.556,0.128,0.961,0,L,,1
CJ_EEG,3,S03,0,10,1,0,repeat,-0.2012543922694745,1,1,1,0,1,-0.2,1.0,0,0,0,-0.05,1.3482139999996434,-0.401058764416592,0.4464001228191447,0.5655659904663689,-0.8013746310213146,-0.4428397289638802,-0.5742193425005744,1.806,0.568,0.956,0.078,1.352,1.738,0.556,0.128,0.961,0,L,-1.0,0
CJ_EEG,3,S03,0,10,2,0,repeat,-0.2012543922694745,1,1,1,0,1,-0.2,1.0,0,45,0,0.85,1.7645100999998249,-0.401058764416592,0.4464001228191447,0.5655659904663689,-0.8013746310213146,-0.4428397289638802,-0.5742193425005744,1.806,0.568,0.956,0.078,1.352,1.738,0.556,0.128,0.961,0,H,-0.05,0
CJ_EEG,3,S03,0,11,0,0,nonrepeat,0.3159323928886196,1,1,1,1,1,0.3,1.0,0,45,1,0.9,1.3566163000004965,0.0415099475933631,-0.0628956950749202,0.8314371148870454,-0.2162030900010208,0.4871437882506699,0.8146022916765798,0.409,0.368,2.29,1.263,0.584,2.429,0.556,0.128,0.961,0,H,,0
CJ_EEG,3,S03,0,11,1,1,nonrepeat,0.3159323928886196,1,1,1,1,1,0.3,1.0,1,0,1,-0.4,3.540654800000084,0.0415099475933631,-0.0628956950749202,0.8314371148870454,-0.2162030900010208,0.4871437882506699,0.8146022916765798,0.409,0.368,2.29,1.263,0.584,2.429,0.556,0.128,0.961,0,L,0.9,1
CJ_EEG,3,S03,0,11,2,1,nonrepeat,0.3159323928886196,1,1,1,1,1,0.3,1.0,1,0,1,-0.85,1.6257612999997946,0.0415099475933631,-0.0628956950749205,0.8314371148870454,-0.2162030900010208,0.4871437882506702,0.8146022916765798,1.9797963267948968,1.9387963267948964,0.7192036732051035,2.8337963267948965,2.1547963267948966,0.8582036732051033,0.556,0.128,0.961,0,L,-0.4,1
CJ_EEG,3,S03,0,12,0,1,repeat,-0.3060922429026591,1,1,1,0,0,-0.3,-1.0,1,0,1,-0.95,1.6683274999995774,-0.6878203711109129,-0.757565836942438,0.589002951829483,-0.8609809491948952,-0.7275267374266752,0.6083374854294836,3.019,1.666,0.624,3.087,0.107,2.51,0.556,0.128,0.961,1,L,,1
CJ_EEG,3,S03,0,12,1,0,repeat,-0.3060922429026591,1,1,0,0,0,-0.3,-1.0,1,0,1,-0.2,1.639017899999999,-0.6878203711109129,-0.757565836942438,0.589002951829483,-0.8609809491948952,-0.7275267374266752,0.6083374854294836,3.019,1.666,0.624,3.087,0.107,2.51,0.556,0.128,0.961,0,L,-0.95,1
CJ_EEG,3,S03,0,12,2,0,repeat,-0.3060922429026591,1,0,0,0,1,-0.3,1.0,1,45,0,-0.95,2.2356000999998287,-0.6878203711109129,-0.757565836942438,0.589002951829483,-0.8609809491948952,-0.7275267374266752,0.6083374854294836,3.019,1.666,0.624,3.087,0.107,2.51,0.556,0.128,0.961,1,L,-0.2,1
CJ_EEG,3,S03,0,13,0,0,nonrepeat,0.1927739234212295,0,0,1,1,1,0.2,1.0,0,45,1,-0.55,1.5548709999993662,0.0420285971512444,0.3730708787823864,0.7474033049345248,0.2274029211246968,-0.646558056121506,0.4132958946560308,1.98,2.11,2.257,0.482,1.432,0.555,0.556,0.128,0.961,0,L,,0
CJ_EEG,3,S03,0,13,1,1,nonrepeat,0.1927739234212295,0,1,1,1,1,0.2,1.0,1,0,1,0.1,1.4706938999997874,0.0420285971512444,0.3730708787823864,0.7474033049345248,0.2274029211246968,-0.646558056121506,0.4132958946560308,1.98,2.11,2.257,0.482,1.432,0.555,0.556,0.128,0.961,0,L,-0.55,1
CJ_EEG,3,S03,0,13,2,1,nonrepeat,0.1927739234212297,1,1,1,1,1,0.2,1.0,1,45,1,0.9,1.2363384000000224,0.0420285971512444,0.3730708787823864,0.7474033049345248,0.2274029211246975,-0.646558056121506,0.413295894656031,0.4092036732051034,0.5392036732051033,0.6862036732051036,2.0527963267948968,3.0027963267948965,2.1257963267948967,0.556,0.128,0.961,0,H,0.1,1
CJ_EEG,3,S03,0,14,0,1,nonrepeat,0.1870758740914272,1,1,1,1,1,0.2,1.0,1,45,1,0.85,1.6278377999997249,0.2044846093194638,0.8431322112186344,0.0302867321197189,0.9750304743132095,-0.5365408057164007,-0.3939379767060625,0.473,0.847,2.737,2.366,0.182,0.238,0.556,0.128,0.961,0,H,,1
CJ_EEG,3,S03,0,14,1,1,nonrepeat,0.1870758740914272,1,1,1,1,1,0.2,1.0,1,0,1,-0.3,1.495736400000169,0.2044846093194638,0.8431322112186344,0.0302867321197189,0.9750304743132095,-0.5365408057164007,-0.3939379767060625,0.473,0.847,2.737,2.366,0.182,0.238,0.556,0.128,0.961,0,L,0.85,1
CJ_EEG,3,S03,0,14,2,1,nonrepeat,0.1870758740914272,1,1,1,1,1,0.2,1.0,1,45,1,-0.05,1.266677599999639,0.2044846093194636,0.8431322112186344,0.0302867321197189,0.9750304743132095,-0.536540805716401,-0.3939379767060625,2.0437963267948964,2.4177963267948965,1.1662036732051035,0.7952036732051035,1.7527963267948965,1.8087963267948963,0.556,0.128,0.961,0,L,-0.3,1
CJ_EEG,3,S03,0,15,0,1,repeat,0.1143361316388853,1,1,1,1,1,0.1,1.0,1,0,1,0.25,1.192470699999831,-0.3557407903640076,0.9888001688763242,0.5126085791453732,-0.5401245839216333,-0.8823433123264838,0.9628167284237396,0.253,0.781,0.594,2.961,1.617,0.8,0.556,0.128,0.961,0,H,,1
CJ_EEG,3,S03,0,15,1,1,repeat,0.1143361316388853,1,1,1,1,1,0.1,1.0,1,0,1,-0.1,2.2463764999993145,-0.3557407903640076,0.9888001688763242,0.5126085791453732,-0.5401245839216333,-0.8823433123264838,0.9628167284237396,0.253,0.781,0.594,2.961,1.617,0.8,0.556,0.128,0.961,0,L,0.25,1
CJ_EEG,3,S03,0,15,2,1,repeat,0.1143361316388853,1,1,1,1,0,0.1,-1.0,1,0,0,-1.0,2.9946835999999166,-0.3557407903640076,0.9888001688763242,0.5126085791453732,-0.5401245839216333,-0.8823433123264838,0.9628167284237396,0.253,0.781,0.594,2.961,1.617,0.8,0.556,0.128,0.961,1,L,-0.1,1
CJ_EEG,3,S03,0,16,0,1,nonrepeat,-0.0834482057599659,1,1,0,0,0,-0.1,-1.0,0,45,1,-0.9,1.1881687000004604,0.6979829031188257,-0.1652735082116148,0.2961578565403957,-0.6516510143004466,-0.364417526748181,-0.3134879449587744,0.904,1.243,0.509,1.434,2.892,2.872,0.556,0.128,0.961,0,L,,0
CJ_EEG,3,S03,0,16,1,0,nonrepeat,-0.0834482057599659,1,0,0,0,0,-0.1,-1.0,1,45,1,-0.95,0.8421235000005254,0.6979829031188257,-0.1652735082116148,0.2961578565403957,-0.6516510143004466,-0.364417526748181,-0.3134879449587744,0.904,1.243,0.509,1.434,2.892,2.872,0.556,0.128,0.961,0,L,-0.9,1
CJ_EEG,3,S03,0,16,2,0,nonrepeat,-0.0834482057599659,0,0,0,0,1,-0.1,1.0,1,45,0,-0.7,1.793410799999947,0.6979829031188259,-0.1652735082116154,0.2961578565403955,-0.6516510143004471,-0.3644175267481799,-0.3134879449587744,2.4747963267948965,2.813796326794897,2.0797963267948965,3.0047963267948967,1.321203673205103,1.301203673205103,0.556,0.128,0.961,1,L,-0.95,1
CJ_EEG,3,S03,0,17,0,0,repeat,-0.0289426405486492,0,0,1,0,1,-0.01,1.0,0,45,0,0.95,1.3579275000001871,-0.9821746463737078,-0.745870740610849,0.4209353319244417,-0.0521911291591574,0.4896902673401402,0.6959550735872368,0.007,1.471,0.558,1.943,0.585,0.666,0.556,0.128,0.961,0,H,,0
CJ_EEG,3,S03,0,17,1,0,repeat,-0.0289426405486492,0,1,1,0,1,-0.01,1.0,0,0,0,-0.6,1.436725800000204,-0.9821746463737078,-0.745870740610849,0.4209353319244417,-0.0521911291591574,0.4896902673401402,0.6959550735872368,0.007,1.471,0.558,1.943,0.585,0.666,0.556,0.128,0.961,0,L,0.95,0
CJ_EEG,3,S03,0,17,2,0,repeat,-0.0289426405486492,1,1,1,0,1,-0.01,1.0,0,0,0,0.9,1.4250361000003977,-0.9821746463737078,-0.745870740610849,0.4209353319244417,-0.0521911291591574,0.4896902673401402,0.6959550735872368,0.007,1.471,0.558,1.943,0.585,0.666,0.556,0.128,0.961,0,H,-0.6,0
CJ_EEG,3,S03,0,18,0,0,repeat,-0.11060285459766,1,1,1,0,1,-0.11,1.0,0,45,0,-0.65,1.308210500000314,0.4438536437296745,-0.3440456940324184,-0.0450703414486279,-0.2966531217483089,-0.058321386453861,-0.3633802276324186,0.567,2.884,0.375,1.847,1.201,0.25,0.556,0.128,0.961,0,L,,0
CJ_EEG,3,S03,0,18,1,0,repeat,-0.11060285459766,1,1,1,0,1,-0.11,1.0,0,0,0,-0.75,1.7180053000001865,0.4438536437296745,-0.3440456940324184,-0.0450703414486279,-0.2966531217483089,-0.058321386453861,-0.3633802276324186,0.567,2.884,0.375,1.847,1.201,0.25,0.556,0.128,0.961,0,L,-0.65,0
CJ_EEG,3,S03,0,18,2,0,repeat,-0.11060285459766,1,1,1,0,1,-0.11,1.0,0,45,0,-0.35,0.844895400000496,0.4438536437296745,-0.3440456940324184,-0.0450703414486279,-0.2966531217483089,-0.058321386453861,-0.3633802276324186,0.567,2.884,0.375,1.847,1.201,0.25,0.556,0.128,0.961,0,L,-0.75,0
CJ_EEG,3,S03,0,19,0,0,nonrepeat,0.1886084384151032,1,1,1,1,1,0.21,1.0,0,0,1,-0.4,1.496906499999568,0.7163269063029996,0.1637409438879387,-0.2314819645378427,0.8405857321291641,-0.7911887146634333,0.433667727371793,0.674,0.457,1.269,0.848,0.082,0.563,0.556,0.128,0.961,0,L,,0
CJ_EEG,3,S03,0,19,1,1,nonrepeat,0.1886084384151032,1,1,1,1,1,0.21,1.0,1,0,1,-0.2,1.5627745000001596,0.7163269063029996,0.1637409438879387,-0.2314819645378427,0.8405857321291641,-0.7911887146634333,0.433667727371793,0.674,0.457,1.269,0.848,0.082,0.563,0.556,0.128,0.961,0,L,-0.4,1
CJ_EEG,3,S03,0,19,2,1,nonrepeat,0.188608438415103,1,1,1,1,1,0.21,1.0,1,45,1,-0.2,1.958179299999756,0.7163269063029991,0.1637409438879382,-0.2314819645378433,0.8405857321291643,-0.7911887146634331,0.4336677273717926,2.2447963267948965,2.0277963267948964,2.8397963267948967,2.4187963267948964,1.6527963267948966,2.1337963267948963,0.556,0.128,0.961,0,L,-0.2,1
CJ_EEG,3,S03,0,20,0,1,repeat,-0.2049090225010421,1,1,1,0,1,-0.21,1.0,1,0,0,-0.25,1.523486299999604,-0.7463893901687296,0.6246536590820677,-0.7275267374266752,0.581363514561072,-0.5869517379479257,-0.3746034431060623,3.042,0.638,0.107,0.621,1.733,2.896,0.556,0.128,0.961,0,L,,1
CJ_EEG,3,S03,0,20,1,0,repeat,-0.2049090225010421,1,1,1,0,0,-0.21,-1.0,0,0,1,-1.0,1.4895407000003615,-0.7463893901687296,0.6246536590820677,-0.7275267374266752,0.581363514561072,-0.5869517379479257,-0.3746034431060623,3.042,0.638,0.107,0.621,1.733,2.896,0.556,0.128,0.961,1,L,-0.25,0
CJ_EEG,3,S03,0,20,2,0,repeat,-0.2049090225010421,1,1,0,0,1,-0.21,1.0,1,45,0,-1.0,1.7772312999995847,-0.7463893901687296,0.6246536590820677,-0.7275267374266752,0.581363514561072,-0.5869517379479257,-0.3746034431060623,3.042,0.638,0.107,0.621,1.733,2.896,0.556,0.128,0.961,1,L,-1.0,1
CJ_EEG,3,S03,0,21,0,0,nonrepeat,-0.3023589658614337,1,0,1,0,1,-0.31,1.0,0,0,0,-1.0,0.9979477999995652,0.42753747007709,-0.8711668655527766,-0.4749066580112319,-0.8375439878317802,0.400563499208679,-0.4586372530585829,2.581,3.091,1.777,1.507,0.55,2.929,0.556,0.128,0.961,0,L,,0
CJ_EEG,3,S03,0,21,1,0,nonrepeat,-0.3023589658614337,0,1,1,0,0,-0.31,-1.0,0,45,1,-0.65,1.8248327999999676,0.42753747007709,-0.8711668655527766,-0.4749066580112319,-0.8375439878317802,0.400563499208679,-0.4586372530585829,2.581,3.091,1.777,1.507,0.55,2.929,0.556,0.128,0.961,1,L,-1.0,0
CJ_EEG,3,S03,0,21,2,0,nonrepeat,-0.3023589658614336,1,1,0,0,0,-0.31,-1.0,1,0,1,-0.9,1.0797567999998137,0.4275374700770912,-0.8711668655527766,-0.4749066580112313,-0.8375439878317796,0.4005634992086786,-0.458637253058584,1.010203673205103,1.5202036732051036,0.2062036732051035,3.077796326794896,2.1207963267948964,1.3582036732051035,0.556,0.128,0.961,0,L,-0.65,1
CJ_EEG,3,S03,1,0,0,0,nonrepeat,-0.3939535662727079,1,0,0,0,0,-0.41,-1.0,1,0,1,-0.95,1.5451913999995668,-0.5879890370636887,-0.0130034124012763,-0.944496109589534,0.8298811662134012,-0.9755725082210596,-0.6725414965740903,1.409,2.754,1.549,2.423,3.132,3.013,0.556,0.128,0.961,0,L,,1
CJ_EEG,3,S03,1,0,1,0,nonrepeat,-0.3939535662727079,0,0,0,0,0,-0.41,-1.0,1,45,1,-0.7,1.285812299999634,-0.5879890370636887,-0.0130034124012763,-0.944496109589534,0.8298811662134012,-0.9755725082210596,-0.6725414965740903,1.409,2.754,1.549,2.423,3.132,3.013,0.556,0.128,0.961,0,L,-0.95,1
CJ_EEG,3,S03,1,0,2,0,nonrepeat,-0.3939535662727074,0,0,0,0,1,-0.41,1.0,1,0,0,-0.75,3.130232600000454,-0.5879890370636881,-0.0130034124012752,-0.944496109589534,0.8298811662134012,-0.9755725082210586,-0.6725414965740903,2.9797963267948964,1.183203673205103,3.1197963267948965,0.8522036732051035,1.5612036732051031,1.4422036732051031,0.556,0.128,0.961,1,L,-0.7,1
CJ_EEG,3,S03,1,1,0,0,repeat,-0.4102385607920016,0,0,1,0,1,-0.41,1.0,0,45,0,-0.35,1.3433645000004617,-0.3149971249324824,0.464225476445437,-0.7453520910529674,-0.8084954187318445,-0.7158316410950857,-0.3409805653850671,0.269,0.575,0.1,1.646,3.03,1.312,0.556,0.128,0.961,0,L,,0
CJ_EEG,3,S03,1,1,1,0,repeat,-0.4102385607920016,0,1,1,0,0,-0.41,-1.0,0,0,1,-1.0,1.3054309999997713,-0.3149971249324824,0.464225476445437,-0.7453520910529674,-0.8084954187318445,-0.7158316410950857,-0.3409805653850671,0.269,0.575,0.1,1.646,3.03,1.312,0.556,0.128,0.961,1,L,-0.35,0
CJ_EEG,3,S03,1,1,2,0,repeat,-0.4102385607920016,1,1,0,0,0,-0.41,-1.0,1,45,1,-1.0,1.616027899999608,-0.3149971249324824,0.464225476445437,-0.7453520910529674,-0.8084954187318445,-0.7158316410950857,-0.3409805653850671,0.269,0.575,0.1,1.646,3.03,1.312,0.556,0.128,0.961,0,L,-1.0,1
CJ_EEG,3,S03,1,2,0,0,nonrepeat,-0.5150686166418635,1,0,0,0,0,-0.51,-1.0,1,0,1,-0.1,1.4258395999995628,0.33892935150351,-0.5136224939111678,-0.8120791969370775,-0.9653865918631784,-0.3221179126430121,-0.8161348560002553,1.045,0.191,1.497,3.128,1.837,1.643,0.556,0.128,0.961,0,L,,1
CJ_EEG,3,S03,1,2,1,0,nonrepeat,-0.5150686166418635,0,0,0,0,0,-0.51,-1.0,1,0,1,-0.95,1.488723299999947,0.33892935150351,-0.5136224939111678,-0.8120791969370775,-0.9653865918631784,-0.3221179126430121,-0.8161348560002553,1.045,0.191,1.497,3.128,1.837,1.643,0.556,0.128,0.961,0,L,-0.1,1
CJ_EEG,3,S03,1,2,2,0,nonrepeat,-0.5150686166418635,0,0,0,0,0,-0.51,-1.0,1,0,1,-0.05,1.2298803000003318,0.33892935150351,-0.5136224939111678,-0.812079196937077,-0.9653865918631784,-0.3221179126430127,-0.8161348560002558,2.6157963267948965,1.7617963267948966,3.0677963267948964,1.5572036732051036,0.2662036732051032,0.0722036732051032,0.556,0.128,0.961,0,L,-0.95,1
CJ_EEG,3,S03,1,3,0,0,repeat,-0.4875682014322484,0,0,0,0,0,-0.51,-1.0,1,45,1,-0.15,1.1865422000000765,-0.1708851159484361,-0.5385686352479897,-0.1591432509169111,-0.8146256760265476,-0.4861298734848756,-0.7560566569687303,2.816,1.752,1.901,1.498,1.369,1.475,0.556,0.128,0.961,0,L,,1
CJ_EEG,3,S03,1,3,1,0,repeat,-0.4875682014322484,0,0,0,0,0,-0.51,-1.0,1,0,1,-1.0,1.4298785000000862,-0.1708851159484361,-0.5385686352479897,-0.1591432509169111,-0.8146256760265476,-0.4861298734848756,-0.7560566569687303,2.816,1.752,1.901,1.498,1.369,1.475,0.556,0.128,0.961,0,L,-0.15,1
CJ_EEG,3,S03,1,4,0,0,repeat,-0.4260282901033823,0,0,1,0,0,-0.41,-1.0,0,0,1,-1.0,1.297216599999956,-0.1260390227537972,-0.402096063532355,-0.8431555955686026,-0.5563939888742817,-0.2803837167956605,-0.3481013530955966,1.914,1.336,3.08,1.745,2.859,0.256,0.556,0.128,0.961,1,L,,0
CJ_EEG,3,S03,1,4,1,0,repeat,-0.4260282901033823,0,1,0,0,0,-0.41,-1.0,1,45,1,-0.9,1.3080853000001298,-0.1260390227537972,-0.402096063532355,-0.8431555955686026,-0.5563939888742817,-0.2803837167956605,-0.3481013530955966,1.914,1.336,3.08,1.745,2.859,0.256,0.556,0.128,0.961,0,L,-1.0,1
CJ_EEG,3,S03,1,4,2,0,repeat,-0.4260282901033823,1,0,0,0,0,-0.41,-1.0,1,45,1,-0.95,1.4565400000001318,-0.1260390227537972,-0.402096063532355,-0.8431555955686026,-0.5563939888742817,-0.2803837167956605,-0.3481013530955966,1.914,1.336,3.08,1.745,2.859,0.256,0.556,0.128,0.961,0,L,-0.9,1
CJ_EEG,3,S03,1,5,0,0,nonrepeat,-0.4286612107858328,0,0,0,0,0,-0.41,-1.0,1,45,1,-0.75,1.3371252999995704,-0.8115605473791959,-0.9755725082210596,-0.5676172043479261,0.6073469550136565,0.1382761529932354,-0.9628401127737072,0.074,3.132,1.401,2.202,0.447,3.127,0.556,0.128,0.961,0,L,,1
CJ_EEG,3,S03,1,5,1,0,nonrepeat,-0.4286612107858328,0,0,0,0,0,-0.41,-1.0,1,45,1,-0.05,0.89968989999943,-0.8115605473791959,-0.9755725082210596,-0.5676172043479261,0.6073469550136565,0.1382761529932354,-0.9628401127737072,0.074,3.132,1.401,2.202,0.447,3.127,0.556,0.128,0.961,0,L,-0.75,1
